Time,Header.seq,Header.stamp.secs,Header.stamp.nsecs,Header.frame_id,IMU.header.seq,IMU.header.stamp.secs,IMU.header.stamp.nsecs,IMU.header.frame_id,IMU.orientation.x,IMU.orientation.y,IMU.orientation.z,IMU.orientation.w,IMU.orientation_covariance,IMU.angular_velocity.x,IMU.angular_velocity.y,IMU.angular_velocity.z,IMU.angular_velocity_covariance,IMU.linear_acceleration.x,IMU.linear_acceleration.y,IMU.linear_acceleration.z,IMU.linear_acceleration_covariance,MagField.header.seq,MagField.header.stamp.secs,MagField.header.stamp.nsecs,MagField.header.frame_id,MagField.magnetic_field.x,MagField.magnetic_field.y,MagField.magnetic_field.z,MagField.magnetic_field_covariance,IMU_backup
1698962794.7377653,0,1698962794,705893993,GPS1_Frame,0,0,0,,0.1079511583521447,0.08837523422847719,0.5353497462733341,0.833028819759898,"(0.0, 0.0, 0.0, 0.0, 0.0, 0.0, 0.0, 0.0, 0.0)",6e-06,0.000319,0.000544,"(0.0, 0.0, 0.0, 0.0, 0.0, 0.0, 0.0, 0.0, 0.0)",0.282,-2.7,-9.524,"(0.0, 0.0, 0.0, 0.0, 0.0, 0.0, 0.0, 0.0, 0.0)",0,0,0,,4.62e-06,-3.61e-06,1.755e-05,"(0.0, 0.0, 0.0, 0.0, 0.0, 0.0, 0.0, 0.0, 0.0)","$VNYMR,+065.708,+001.814,+015.939,+00.0462,-00.0361,+00.1755,+00.282,-02.700,-09.524,+00.000006,+00.000319,+00.000544*62
"
1698962794.7570744,0,1698962794,738055467,GPS1_Frame,0,0,0,,0.10795867932123841,0.08839465295782403,0.5353689215469035,0.8330134613134325,"(0.0, 0.0, 0.0, 0.0, 0.0, 0.0, 0.0, 0.0, 0.0)",0.001233,0.001966,0.000628,"(0.0, 0.0, 0.0, 0.0, 0.0, 0.0, 0.0, 0.0, 0.0)",0.278,-2.73,-9.479,"(0.0, 0.0, 0.0, 0.0, 0.0, 0.0, 0.0, 0.0, 0.0)",0,0,0,,5.050000000000001e-06,-3.5000000000000004e-06,1.7690000000000002e-05,"(0.0, 0.0, 0.0, 0.0, 0.0, 0.0, 0.0, 0.0, 0.0)","$VNYMR,+065.711,+001.815,+015.941,+00.0505,-00.0350,+00.1769,+00.278,-02.730,-09.479,+00.001233,+00.001966,+00.000628*69
"
1698962794.7695363,0,1698962794,757715702,GPS1_Frame,0,0,0,,0.10796594873093422,0.08839932492965506,0.5353681501376507,0.8330125191645086,"(0.0, 0.0, 0.0, 0.0, 0.0, 0.0, 0.0, 0.0, 0.0)",0.00115,-0.002454,0.000346,"(0.0, 0.0, 0.0, 0.0, 0.0, 0.0, 0.0, 0.0, 0.0)",0.298,-2.722,-9.502,"(0.0, 0.0, 0.0, 0.0, 0.0, 0.0, 0.0, 0.0, 0.0)",0,0,0,,5.15e-06,-3.7300000000000003e-06,1.77e-05,"(0.0, 0.0, 0.0, 0.0, 0.0, 0.0, 0.0, 0.0, 0.0)","$VNYMR,+065.711,+001.815,+015.942,+00.0515,-00.0373,+00.1770,+00.298,-02.722,-09.502,+00.001150,-00.002454,+00.000346*60
"
1698962794.7853746,0,1698962794,775259733,GPS1_Frame,0,0,0,,0.1079544952299404,0.08838621271034189,0.5353406149011143,0.8330330908191271,"(0.0, 0.0, 0.0, 0.0, 0.0, 0.0, 0.0, 0.0, 0.0)",-0.000299,0.001388,-0.001621,"(0.0, 0.0, 0.0, 0.0, 0.0, 0.0, 0.0, 0.0, 0.0)",0.272,-2.7,-9.525,"(0.0, 0.0, 0.0, 0.0, 0.0, 0.0, 0.0, 0.0, 0.0)",0,0,0,,5.06e-06,-3.04e-06,1.718e-05,"(0.0, 0.0, 0.0, 0.0, 0.0, 0.0, 0.0, 0.0, 0.0)","$VNYMR,+065.707,+001.815,+015.940,+00.0506,-00.0304,+00.1718,+00.272,-02.700,-09.525,-00.000299,+00.001388,-00.001621*69
"
1698962794.8071713,0,1698962794,799613952,GPS1_Frame,0,0,0,,0.10795270077451724,0.08837335011187238,0.5353352070961275,0.8330381632487422,"(0.0, 0.0, 0.0, 0.0, 0.0, 0.0, 0.0, 0.0, 0.0)",-0.001414,-0.002803,-0.0006,"(0.0, 0.0, 0.0, 0.0, 0.0, 0.0, 0.0, 0.0, 0.0)",0.331,-2.725,-9.543,"(0.0, 0.0, 0.0, 0.0, 0.0, 0.0, 0.0, 0.0, 0.0)",0,0,0,,4.94e-06,-3.7300000000000003e-06,1.756e-05,"(0.0, 0.0, 0.0, 0.0, 0.0, 0.0, 0.0, 0.0, 0.0)","$VNYMR,+065.706,+001.814,+015.939,+00.0494,-00.0373,+00.1756,+00.331,-02.725,-09.543,-00.001414,-00.002803,-00.000600*6B
"
1698962794.8492918,0,1698962794,835202932,GPS1_Frame,0,0,0,,0.10795526654104236,0.08838527062628436,0.5353333452956236,0.8330377625155824,"(0.0, 0.0, 0.0, 0.0, 0.0, 0.0, 0.0, 0.0, 0.0)",0.000986,0.002921,0.000252,"(0.0, 0.0, 0.0, 0.0, 0.0, 0.0, 0.0, 0.0, 0.0)",0.33,-2.741,-9.479,"(0.0, 0.0, 0.0, 0.0, 0.0, 0.0, 0.0, 0.0, 0.0)",0,0,0,,5.04e-06,-3.7300000000000003e-06,1.7690000000000002e-05,"(0.0, 0.0, 0.0, 0.0, 0.0, 0.0, 0.0, 0.0, 0.0)","$VNYMR,+065.706,+001.815,+015.940,+00.0504,-00.0373,+00.1769,+00.330,-02.741,-09.479,+00.000986,+00.002921,+00.000252*68
"
1698962794.8663867,0,1698962794,850359439,GPS1_Frame,0,0,0,,0.10796569743137086,0.0883845778307386,0.5353482037529812,0.833026935529876,"(0.0, 0.0, 0.0, 0.0, 0.0, 0.0, 0.0, 0.0, 0.0)",-0.000946,-0.000551,-0.000374,"(0.0, 0.0, 0.0, 0.0, 0.0, 0.0, 0.0, 0.0, 0.0)",0.342,-2.743,-9.504,"(0.0, 0.0, 0.0, 0.0, 0.0, 0.0, 0.0, 0.0, 0.0)",0,0,0,,4.83e-06,-3.84e-06,1.756e-05,"(0.0, 0.0, 0.0, 0.0, 0.0, 0.0, 0.0, 0.0, 0.0)","$VNYMR,+065.708,+001.814,+015.941,+00.0483,-00.0384,+00.1756,+00.342,-02.743,-09.504,-00.000946,-00.000551,-00.000374*66
"
1698962794.9095342,0,1698962794,874871492,GPS1_Frame,0,0,0,,0.10795295258307289,0.08838809685826389,0.5353551539897894,0.8330237472358997,"(0.0, 0.0, 0.0, 0.0, 0.0, 0.0, 0.0, 0.0, 0.0)",-0.000227,-0.00026,0.001005,"(0.0, 0.0, 0.0, 0.0, 0.0, 0.0, 0.0, 0.0, 0.0)",0.33,-2.732,-9.508,"(0.0, 0.0, 0.0, 0.0, 0.0, 0.0, 0.0, 0.0, 0.0)",0,0,0,,4.83e-06,-3.61e-06,1.7690000000000002e-05,"(0.0, 0.0, 0.0, 0.0, 0.0, 0.0, 0.0, 0.0, 0.0)","$VNYMR,+065.709,+001.815,+015.940,+00.0483,-00.0361,+00.1769,+00.330,-02.732,-09.508,-00.000227,-00.000260,+00.001005*64
"
1698962794.9531882,0,1698962794,901283025,GPS1_Frame,0,0,0,,0.10794670572007842,0.0883972296040728,0.535368602321083,0.8330149447466583,"(0.0, 0.0, 0.0, 0.0, 0.0, 0.0, 0.0, 0.0, 0.0)",-0.000913,0.001008,0.000768,"(0.0, 0.0, 0.0, 0.0, 0.0, 0.0, 0.0, 0.0, 0.0)",0.315,-2.689,-9.496,"(0.0, 0.0, 0.0, 0.0, 0.0, 0.0, 0.0, 0.0, 0.0)",0,0,0,,5.1600000000000006e-06,-3.2800000000000004e-06,1.794e-05,"(0.0, 0.0, 0.0, 0.0, 0.0, 0.0, 0.0, 0.0, 0.0)","$VNYMR,+065.711,+001.816,+015.940,+00.0516,-00.0328,+00.1794,+00.315,-02.689,-09.496,-00.000913,+00.001008,+00.000768*66
"
1698962794.9536011,0,1698962794,926177978,GPS1_Frame,0,0,0,,0.1079290814651316,0.08839165313529827,0.5353992225088444,0.8329981401942185,"(0.0, 0.0, 0.0, 0.0, 0.0, 0.0, 0.0, 0.0, 0.0)",-0.00122,-0.000821,0.000627,"(0.0, 0.0, 0.0, 0.0, 0.0, 0.0, 0.0, 0.0, 0.0)",0.325,-2.709,-9.49,"(0.0, 0.0, 0.0, 0.0, 0.0, 0.0, 0.0, 0.0, 0.0)",0,0,0,,5.04e-06,-3.84e-06,1.7440000000000002e-05,"(0.0, 0.0, 0.0, 0.0, 0.0, 0.0, 0.0, 0.0, 0.0)","$VNYMR,+065.715,+001.816,+015.938,+00.0504,-00.0384,+00.1744,+00.325,-02.709,-09.490,-00.001220,-00.000821,+00.000627*6D
"
1698962794.9976192,0,1698962794,952501296,GPS1_Frame,0,0,0,,0.10792129124167249,0.08840266882578751,0.5354272088322979,0.8329799920065685,"(0.0, 0.0, 0.0, 0.0, 0.0, 0.0, 0.0, 0.0, 0.0)",-0.001049,0.000771,0.000968,"(0.0, 0.0, 0.0, 0.0, 0.0, 0.0, 0.0, 0.0, 0.0)",0.3,-2.705,-9.465,"(0.0, 0.0, 0.0, 0.0, 0.0, 0.0, 0.0, 0.0, 0.0)",0,0,0,,5.04e-06,-4.07e-06,1.732e-05,"(0.0, 0.0, 0.0, 0.0, 0.0, 0.0, 0.0, 0.0, 0.0)","$VNYMR,+065.719,+001.817,+015.938,+00.0504,-00.0407,+00.1732,+00.300,-02.705,-09.465,-00.001049,+00.000771,+00.000968*69
"
1698962794.9977376,0,1698962794,974590063,GPS1_Frame,0,0,0,,0.10792522454894572,0.0883963623457297,0.5354355683996941,0.8329747782031569,"(0.0, 0.0, 0.0, 0.0, 0.0, 0.0, 0.0, 0.0, 0.0)",0.000356,-0.001411,0.000136,"(0.0, 0.0, 0.0, 0.0, 0.0, 0.0, 0.0, 0.0, 0.0)",0.271,-2.702,-9.513,"(0.0, 0.0, 0.0, 0.0, 0.0, 0.0, 0.0, 0.0, 0.0)",0,0,0,,4.94e-06,-3.61e-06,1.756e-05,"(0.0, 0.0, 0.0, 0.0, 0.0, 0.0, 0.0, 0.0, 0.0)","$VNYMR,+065.720,+001.816,+015.938,+00.0494,-00.0361,+00.1756,+00.271,-02.702,-09.513,+00.000356,-00.001411,+00.000136*64
"
1698962795.0406532,0,1698962795,1499652,GPS1_Frame,0,0,0,,0.10792838661342653,0.08839099779053908,0.5354511968864353,0.8329648915923765,"(0.0, 0.0, 0.0, 0.0, 0.0, 0.0, 0.0, 0.0, 0.0)",-0.001119,-0.000802,0.000921,"(0.0, 0.0, 0.0, 0.0, 0.0, 0.0, 0.0, 0.0, 0.0)",0.258,-2.712,-9.558,"(0.0, 0.0, 0.0, 0.0, 0.0, 0.0, 0.0, 0.0, 0.0)",0,0,0,,4.84e-06,-3.5000000000000004e-06,1.73e-05,"(0.0, 0.0, 0.0, 0.0, 0.0, 0.0, 0.0, 0.0, 0.0)","$VNYMR,+065.722,+001.815,+015.938,+00.0484,-00.0350,+00.1730,+00.258,-02.712,-09.558,-00.001119,-00.000802,+00.000921*6C
"
1698962795.0408142,0,1698962795,24610519,GPS1_Frame,0,0,0,,0.1079211176193611,0.08838632509398875,0.5354519682230171,0.832965833413511,"(0.0, 0.0, 0.0, 0.0, 0.0, 0.0, 0.0, 0.0, 0.0)",-0.000434,0.001149,-0.000321,"(0.0, 0.0, 0.0, 0.0, 0.0, 0.0, 0.0, 0.0, 0.0)",0.319,-2.72,-9.531,"(0.0, 0.0, 0.0, 0.0, 0.0, 0.0, 0.0, 0.0, 0.0)",0,0,0,,4.62e-06,-3.830000000000001e-06,1.718e-05,"(0.0, 0.0, 0.0, 0.0, 0.0, 0.0, 0.0, 0.0, 0.0)","$VNYMR,+065.722,+001.815,+015.937,+00.0462,-00.0383,+00.1718,+00.319,-02.720,-09.531,-00.000434,+00.001149,-00.000321*63
"
1698962795.085119,0,1698962795,49949884,GPS1_Frame,0,0,0,,0.10791743384484384,0.08840737769629588,0.535463553931257,0.8329566287943904,"(0.0, 0.0, 0.0, 0.0, 0.0, 0.0, 0.0, 0.0, 0.0)",0.001971,-0.000591,-9e-06,"(0.0, 0.0, 0.0, 0.0, 0.0, 0.0, 0.0, 0.0, 0.0)",0.352,-2.716,-9.469,"(0.0, 0.0, 0.0, 0.0, 0.0, 0.0, 0.0, 0.0, 0.0)",0,0,0,,5.140000000000001e-06,-3.96e-06,1.719e-05,"(0.0, 0.0, 0.0, 0.0, 0.0, 0.0, 0.0, 0.0, 0.0)","$VNYMR,+065.724,+001.817,+015.938,+00.0514,-00.0396,+00.1719,+00.352,-02.716,-09.469,+00.001971,-00.000591,-00.000009*6F
"
1698962795.097021,0,1698962795,76244115,GPS1_Frame,0,0,0,,0.10791743384484384,0.08840737769629588,0.535463553931257,0.8329566287943904,"(0.0, 0.0, 0.0, 0.0, 0.0, 0.0, 0.0, 0.0, 0.0)",0.001934,0.000562,-9.7e-05,"(0.0, 0.0, 0.0, 0.0, 0.0, 0.0, 0.0, 0.0, 0.0)",0.33,-2.711,-9.517,"(0.0, 0.0, 0.0, 0.0, 0.0, 0.0, 0.0, 0.0, 0.0)",0,0,0,,5.04e-06,-3.84e-06,1.77e-05,"(0.0, 0.0, 0.0, 0.0, 0.0, 0.0, 0.0, 0.0, 0.0)","$VNYMR,+065.724,+001.817,+015.938,+00.0504,-00.0384,+00.1770,+00.330,-02.711,-09.517,+00.001934,+00.000562,-00.000097*65
"
1698962795.146075,0,1698962795,99824905,GPS1_Frame,0,0,0,,0.10791666234082276,0.08840831945019997,0.5354708228287173,0.8329519559616537,"(0.0, 0.0, 0.0, 0.0, 0.0, 0.0, 0.0, 0.0, 0.0)",-0.000911,0.004375,-0.000296,"(0.0, 0.0, 0.0, 0.0, 0.0, 0.0, 0.0, 0.0, 0.0)",0.347,-2.687,-9.553,"(0.0, 0.0, 0.0, 0.0, 0.0, 0.0, 0.0, 0.0, 0.0)",0,0,0,,4.62e-06,-3.95e-06,1.73e-05,"(0.0, 0.0, 0.0, 0.0, 0.0, 0.0, 0.0, 0.0, 0.0)","$VNYMR,+065.725,+001.817,+015.938,+00.0462,-00.0395,+00.1730,+00.347,-02.687,-09.553,-00.000911,+00.004375,-00.000296*68
"
1698962795.146135,0,1698962795,125920057,GPS1_Frame,0,0,0,,0.10791041408694287,0.08841745091129002,0.5354842700275383,0.8329431513969058,"(0.0, 0.0, 0.0, 0.0, 0.0, 0.0, 0.0, 0.0, 0.0)",4.6e-05,0.005799,-0.000133,"(0.0, 0.0, 0.0, 0.0, 0.0, 0.0, 0.0, 0.0, 0.0)",0.392,-2.72,-9.496,"(0.0, 0.0, 0.0, 0.0, 0.0, 0.0, 0.0, 0.0, 0.0)",0,0,0,,5.050000000000001e-06,-3.6200000000000005e-06,1.7440000000000002e-05,"(0.0, 0.0, 0.0, 0.0, 0.0, 0.0, 0.0, 0.0, 0.0)","$VNYMR,+065.727,+001.818,+015.938,+00.0505,-00.0362,+00.1744,+00.392,-02.720,-09.496,+00.000046,+00.005799,-00.000133*64
"
1698962795.189214,0,1698962795,150330543,GPS1_Frame,0,0,0,,0.1079143477794497,0.08841114467151602,0.5354926292764255,0.8329379370828471,"(0.0, 0.0, 0.0, 0.0, 0.0, 0.0, 0.0, 0.0, 0.0)",-0.001679,-0.003526,0.00042,"(0.0, 0.0, 0.0, 0.0, 0.0, 0.0, 0.0, 0.0, 0.0)",0.344,-2.712,-9.466,"(0.0, 0.0, 0.0, 0.0, 0.0, 0.0, 0.0, 0.0, 0.0)",0,0,0,,4.72e-06,-3.84e-06,1.781e-05,"(0.0, 0.0, 0.0, 0.0, 0.0, 0.0, 0.0, 0.0, 0.0)","$VNYMR,+065.728,+001.817,+015.938,+00.0472,-00.0384,+00.1781,+00.344,-02.712,-09.466,-00.001679,-00.003526,+00.000420*6B
"
1698962795.1892889,0,1698962795,175076723,GPS1_Frame,0,0,0,,0.10790416553897186,0.0884265821744698,0.5354977170413553,0.832934346553062,"(0.0, 0.0, 0.0, 0.0, 0.0, 0.0, 0.0, 0.0, 0.0)",-0.000582,0.001859,0.000213,"(0.0, 0.0, 0.0, 0.0, 0.0, 0.0, 0.0, 0.0, 0.0)",0.339,-2.723,-9.536,"(0.0, 0.0, 0.0, 0.0, 0.0, 0.0, 0.0, 0.0, 0.0)",0,0,0,,5.050000000000001e-06,-3.5000000000000004e-06,1.718e-05,"(0.0, 0.0, 0.0, 0.0, 0.0, 0.0, 0.0, 0.0, 0.0)","$VNYMR,+065.729,+001.819,+015.938,+00.0505,-00.0350,+00.1718,+00.339,-02.723,-09.536,-00.000582,+00.001859,+00.000213*61
"
1698962795.2375686,0,1698962795,225144386,GPS1_Frame,0,0,0,,0.10790964249501664,0.0884183926039348,0.5354915388073852,0.8329384783833875,"(0.0, 0.0, 0.0, 0.0, 0.0, 0.0, 0.0, 0.0, 0.0)",0.001099,-0.001468,-0.000603,"(0.0, 0.0, 0.0, 0.0, 0.0, 0.0, 0.0, 0.0, 0.0)",0.333,-2.744,-9.479,"(0.0, 0.0, 0.0, 0.0, 0.0, 0.0, 0.0, 0.0, 0.0)",0,0,0,,4.96e-06,-2.81e-06,1.743e-05,"(0.0, 0.0, 0.0, 0.0, 0.0, 0.0, 0.0, 0.0, 0.0)","$VNYMR,+065.728,+001.818,+015.938,+00.0496,-00.0281,+00.1743,+00.333,-02.744,-09.479,+00.001099,-00.001468,-00.000603*6B
"
1698962795.237729,0,1698962795,200181245,GPS1_Frame,0,0,0,,0.1078984400484736,0.08842002590238382,0.5354839511436729,0.8329446342477322,"(0.0, 0.0, 0.0, 0.0, 0.0, 0.0, 0.0, 0.0, 0.0)",0.000716,0.002811,0.000217,"(0.0, 0.0, 0.0, 0.0, 0.0, 0.0, 0.0, 0.0, 0.0)",0.322,-2.718,-9.51,"(0.0, 0.0, 0.0, 0.0, 0.0, 0.0, 0.0, 0.0, 0.0)",0,0,0,,4.94e-06,-3.7300000000000003e-06,1.718e-05,"(0.0, 0.0, 0.0, 0.0, 0.0, 0.0, 0.0, 0.0, 0.0)","$VNYMR,+065.727,+001.819,+015.937,+00.0494,-00.0373,+00.1718,+00.322,-02.718,-09.510,+00.000716,+00.002811,+00.000217*6C
"
1698962795.281217,0,1698962795,249946355,GPS1_Frame,0,0,0,,0.10791529269695327,0.08842654666150267,0.5354606012678063,0.8329567695490393,"(0.0, 0.0, 0.0, 0.0, 0.0, 0.0, 0.0, 0.0, 0.0)",0.000191,-0.001291,-0.001453,"(0.0, 0.0, 0.0, 0.0, 0.0, 0.0, 0.0, 0.0, 0.0)",0.328,-2.722,-9.535,"(0.0, 0.0, 0.0, 0.0, 0.0, 0.0, 0.0, 0.0, 0.0)",0,0,0,,4.94e-06,-3.7300000000000003e-06,1.7440000000000002e-05,"(0.0, 0.0, 0.0, 0.0, 0.0, 0.0, 0.0, 0.0, 0.0)","$VNYMR,+065.724,+001.819,+015.939,+00.0494,-00.0373,+00.1744,+00.328,-02.722,-09.535,+00.000191,-00.001291,-00.001453*63
"
1698962795.325011,0,1698962795,275556325,GPS1_Frame,0,0,0,,0.10792880991512259,0.08842208766287352,0.535446382341614,0.8329646319267838,"(0.0, 0.0, 0.0, 0.0, 0.0, 0.0, 0.0, 0.0, 0.0)",-0.000117,-0.000732,-0.00059,"(0.0, 0.0, 0.0, 0.0, 0.0, 0.0, 0.0, 0.0, 0.0)",0.305,-2.734,-9.485,"(0.0, 0.0, 0.0, 0.0, 0.0, 0.0, 0.0, 0.0, 0.0)",0,0,0,,4.93e-06,-3.96e-06,1.7440000000000002e-05,"(0.0, 0.0, 0.0, 0.0, 0.0, 0.0, 0.0, 0.0, 0.0)","$VNYMR,+065.722,+001.818,+015.940,+00.0493,-00.0396,+00.1744,+00.305,-02.734,-09.485,-00.000117,-00.000732,-00.000590*6E
"
1698962795.325556,0,1698962795,302573204,GPS1_Frame,0,0,0,,0.10793744819197389,0.08840853327194909,0.5354558325064617,0.8329588765103111,"(0.0, 0.0, 0.0, 0.0, 0.0, 0.0, 0.0, 0.0, 0.0)",0.000646,4.8e-05,0.000407,"(0.0, 0.0, 0.0, 0.0, 0.0, 0.0, 0.0, 0.0, 0.0)",0.333,-2.716,-9.501,"(0.0, 0.0, 0.0, 0.0, 0.0, 0.0, 0.0, 0.0, 0.0)",0,0,0,,4.94e-06,-3.61e-06,1.7690000000000002e-05,"(0.0, 0.0, 0.0, 0.0, 0.0, 0.0, 0.0, 0.0, 0.0)","$VNYMR,+065.723,+001.816,+015.940,+00.0494,-00.0361,+00.1769,+00.333,-02.716,-09.501,+00.000646,+00.000048,+00.000407*69
"
1698962795.3708496,0,1698962795,325645923,GPS1_Frame,0,0,0,,0.10793095071550884,0.08840291866308342,0.5354493350299965,0.8329644911191768,"(0.0, 0.0, 0.0, 0.0, 0.0, 0.0, 0.0, 0.0, 0.0)",-0.000563,0.001136,0.000438,"(0.0, 0.0, 0.0, 0.0, 0.0, 0.0, 0.0, 0.0, 0.0)",0.322,-2.717,-9.519,"(0.0, 0.0, 0.0, 0.0, 0.0, 0.0, 0.0, 0.0, 0.0)",0,0,0,,4.84e-06,-3.5000000000000004e-06,1.781e-05,"(0.0, 0.0, 0.0, 0.0, 0.0, 0.0, 0.0, 0.0, 0.0)","$VNYMR,+065.722,+001.816,+015.939,+00.0484,-00.0350,+00.1781,+00.322,-02.717,-09.519,-00.000563,+00.001136,+00.000438*6C
"
1698962795.370867,0,1698962795,349619388,GPS1_Frame,0,0,0,,0.10793513362499589,0.08841135903743737,0.5354776391353547,0.8329448580239479,"(0.0, 0.0, 0.0, 0.0, 0.0, 0.0, 0.0, 0.0, 0.0)",0.000108,0.001527,0.000509,"(0.0, 0.0, 0.0, 0.0, 0.0, 0.0, 0.0, 0.0, 0.0)",0.345,-2.715,-9.5,"(0.0, 0.0, 0.0, 0.0, 0.0, 0.0, 0.0, 0.0, 0.0)",0,0,0,,4.83e-06,-3.84e-06,1.7440000000000002e-05,"(0.0, 0.0, 0.0, 0.0, 0.0, 0.0, 0.0, 0.0, 0.0)","$VNYMR,+065.726,+001.816,+015.940,+00.0483,-00.0384,+00.1744,+00.345,-02.715,-09.500,+00.000108,+00.001527,+00.000509*62
"
1698962795.4125147,0,1698962795,374996662,GPS1_Frame,0,0,0,,0.10793197166410506,0.08841672328487069,0.5354620108498775,0.8329547451529832,"(0.0, 0.0, 0.0, 0.0, 0.0, 0.0, 0.0, 0.0, 0.0)",-0.000303,0.002013,-0.000194,"(0.0, 0.0, 0.0, 0.0, 0.0, 0.0, 0.0, 0.0, 0.0)",0.328,-2.706,-9.483,"(0.0, 0.0, 0.0, 0.0, 0.0, 0.0, 0.0, 0.0, 0.0)",0,0,0,,4.94e-06,-3.84e-06,1.7440000000000002e-05,"(0.0, 0.0, 0.0, 0.0, 0.0, 0.0, 0.0, 0.0, 0.0)","$VNYMR,+065.724,+001.817,+015.940,+00.0494,-00.0384,+00.1744,+00.328,-02.706,-09.483,-00.000303,+00.002013,-00.000194*6C
"
1698962795.4126973,0,1698962795,401463508,GPS1_Frame,0,0,0,,0.10793351481060115,0.08841483950313042,0.5354474729654997,0.832964090601225,"(0.0, 0.0, 0.0, 0.0, 0.0, 0.0, 0.0, 0.0, 0.0)",0.000253,-0.000222,0.000485,"(0.0, 0.0, 0.0, 0.0, 0.0, 0.0, 0.0, 0.0, 0.0)",0.34,-2.709,-9.502,"(0.0, 0.0, 0.0, 0.0, 0.0, 0.0, 0.0, 0.0, 0.0)",0,0,0,,4.84e-06,-3.61e-06,1.756e-05,"(0.0, 0.0, 0.0, 0.0, 0.0, 0.0, 0.0, 0.0, 0.0)","$VNYMR,+065.722,+001.817,+015.940,+00.0484,-00.0361,+00.1756,+00.340,-02.709,-09.502,+00.000253,-00.000222,+00.000485*6F
"
1698962795.4604046,0,1698962795,425739288,GPS1_Frame,0,0,0,,0.10792880991512259,0.08842208766287352,0.535446382341614,0.8329646319267838,"(0.0, 0.0, 0.0, 0.0, 0.0, 0.0, 0.0, 0.0, 0.0)",-0.002217,-0.000649,-0.00034,"(0.0, 0.0, 0.0, 0.0, 0.0, 0.0, 0.0, 0.0, 0.0)",0.295,-2.725,-9.519,"(0.0, 0.0, 0.0, 0.0, 0.0, 0.0, 0.0, 0.0, 0.0)",0,0,0,,4.83e-06,-3.61e-06,1.794e-05,"(0.0, 0.0, 0.0, 0.0, 0.0, 0.0, 0.0, 0.0, 0.0)","$VNYMR,+065.722,+001.818,+015.940,+00.0483,-00.0361,+00.1794,+00.295,-02.725,-09.519,-00.002217,-00.000649,-00.000340*61
"
1698962795.4605994,0,1698962795,451004505,GPS1_Frame,0,0,0,,0.10792547429516423,0.0884111086698796,0.5354555134809366,0.8329603597679742,"(0.0, 0.0, 0.0, 0.0, 0.0, 0.0, 0.0, 0.0, 0.0)",-0.00105,0.001328,-0.000389,"(0.0, 0.0, 0.0, 0.0, 0.0, 0.0, 0.0, 0.0, 0.0)",0.276,-2.695,-9.529,"(0.0, 0.0, 0.0, 0.0, 0.0, 0.0, 0.0, 0.0, 0.0)",0,0,0,,5.050000000000001e-06,-3.6200000000000005e-06,1.757e-05,"(0.0, 0.0, 0.0, 0.0, 0.0, 0.0, 0.0, 0.0, 0.0)","$VNYMR,+065.723,+001.817,+015.939,+00.0505,-00.0362,+00.1757,+00.276,-02.695,-09.529,-00.001050,+00.001328,-00.000389*64
"
1698962795.501132,0,1698962795,474726438,GPS1_Frame,0,0,0,,0.1079158908285833,0.08840926119737146,0.5354780916853993,0.8329472830654838,"(0.0, 0.0, 0.0, 0.0, 0.0, 0.0, 0.0, 0.0, 0.0)",0.000582,0.000458,0.000199,"(0.0, 0.0, 0.0, 0.0, 0.0, 0.0, 0.0, 0.0, 0.0)",0.289,-2.699,-9.512,"(0.0, 0.0, 0.0, 0.0, 0.0, 0.0, 0.0, 0.0, 0.0)",0,0,0,,4.7300000000000005e-06,-3.61e-06,1.7680000000000004e-05,"(0.0, 0.0, 0.0, 0.0, 0.0, 0.0, 0.0, 0.0, 0.0)","$VNYMR,+065.726,+001.817,+015.938,+00.0473,-00.0361,+00.1768,+00.289,-02.699,-09.512,+00.000582,+00.000458,+00.000199*62
"
1698962795.5119996,0,1698962795,500005722,GPS1_Frame,0,0,0,,0.10790964249501664,0.0884183926039348,0.5354915388073852,0.8329384783833875,"(0.0, 0.0, 0.0, 0.0, 0.0, 0.0, 0.0, 0.0, 0.0)",0.00022,0.00013,-4.3e-05,"(0.0, 0.0, 0.0, 0.0, 0.0, 0.0, 0.0, 0.0, 0.0)",0.302,-2.726,-9.547,"(0.0, 0.0, 0.0, 0.0, 0.0, 0.0, 0.0, 0.0, 0.0)",0,0,0,,4.84e-06,-3.61e-06,1.7310000000000002e-05,"(0.0, 0.0, 0.0, 0.0, 0.0, 0.0, 0.0, 0.0, 0.0)","$VNYMR,+065.728,+001.818,+015.938,+00.0484,-00.0361,+00.1731,+00.302,-02.726,-09.547,+00.000220,+00.000130,-00.000043*64
"
1698962795.553063,0,1698962795,525804281,GPS1_Frame,0,0,0,,0.10792263662586682,0.08842962229975125,0.5355045329382356,0.8329272486875708,"(0.0, 0.0, 0.0, 0.0, 0.0, 0.0, 0.0, 0.0, 0.0)",-0.000356,-0.000972,-0.001312,"(0.0, 0.0, 0.0, 0.0, 0.0, 0.0, 0.0, 0.0, 0.0)",0.296,-2.734,-9.504,"(0.0, 0.0, 0.0, 0.0, 0.0, 0.0, 0.0, 0.0, 0.0)",0,0,0,,4.94e-06,-3.5000000000000004e-06,1.7690000000000002e-05,"(0.0, 0.0, 0.0, 0.0, 0.0, 0.0, 0.0, 0.0, 0.0)","$VNYMR,+065.730,+001.818,+015.940,+00.0494,-00.0350,+00.1769,+00.296,-02.734,-09.504,-00.000356,-00.000972,-00.001312*6C
"
1698962795.596741,0,1698962795,551820278,GPS1_Frame,0,0,0,,0.10792811365402481,0.08842143262138695,0.5354983548472013,0.8329313804223047,"(0.0, 0.0, 0.0, 0.0, 0.0, 0.0, 0.0, 0.0, 0.0)",0.001115,-0.000361,-0.0008,"(0.0, 0.0, 0.0, 0.0, 0.0, 0.0, 0.0, 0.0, 0.0)",0.309,-2.727,-9.526,"(0.0, 0.0, 0.0, 0.0, 0.0, 0.0, 0.0, 0.0, 0.0)",0,0,0,,5.050000000000001e-06,-3.39e-06,1.756e-05,"(0.0, 0.0, 0.0, 0.0, 0.0, 0.0, 0.0, 0.0, 0.0)","$VNYMR,+065.729,+001.817,+015.940,+00.0505,-00.0339,+00.1756,+00.309,-02.727,-09.526,+00.001115,-00.000361,-00.000800*67
"
1698962795.5967572,0,1698962795,574849843,GPS1_Frame,0,0,0,,0.10792323569455282,0.08841233707873208,0.5355220228556755,0.8329177611781731,"(0.0, 0.0, 0.0, 0.0, 0.0, 0.0, 0.0, 0.0, 0.0)",-0.000477,4.6e-05,0.000455,"(0.0, 0.0, 0.0, 0.0, 0.0, 0.0, 0.0, 0.0, 0.0)",0.347,-2.719,-9.527,"(0.0, 0.0, 0.0, 0.0, 0.0, 0.0, 0.0, 0.0, 0.0)",0,0,0,,5.04e-06,-3.96e-06,1.7820000000000002e-05,"(0.0, 0.0, 0.0, 0.0, 0.0, 0.0, 0.0, 0.0, 0.0)","$VNYMR,+065.732,+001.816,+015.939,+00.0504,-00.0396,+00.1782,+00.347,-02.719,-09.527,-00.000477,+00.000046,+00.000455*65
"
1698962795.6410122,0,1698962795,600939035,GPS1_Frame,0,0,0,,0.10790655604513441,0.08842215930717887,0.5355206135189681,0.8329197856949986,"(0.0, 0.0, 0.0, 0.0, 0.0, 0.0, 0.0, 0.0, 0.0)",-0.000672,0.000953,0.000424,"(0.0, 0.0, 0.0, 0.0, 0.0, 0.0, 0.0, 0.0, 0.0)",0.342,-2.72,-9.508,"(0.0, 0.0, 0.0, 0.0, 0.0, 0.0, 0.0, 0.0, 0.0)",0,0,0,,5.050000000000001e-06,-3.5000000000000004e-06,1.794e-05,"(0.0, 0.0, 0.0, 0.0, 0.0, 0.0, 0.0, 0.0, 0.0)","$VNYMR,+065.732,+001.818,+015.938,+00.0505,-00.0350,+00.1794,+00.342,-02.720,-09.508,-00.000672,+00.000953,+00.000424*68
"
1698962795.6417384,0,1698962795,624833106,GPS1_Frame,0,0,0,,0.10790107880322304,0.08843034868652705,0.5355267916087062,0.8329156536490145,"(0.0, 0.0, 0.0, 0.0, 0.0, 0.0, 0.0, 0.0, 0.0)",0.00059,-0.0005,-0.000304,"(0.0, 0.0, 0.0, 0.0, 0.0, 0.0, 0.0, 0.0, 0.0)",0.32,-2.735,-9.511,"(0.0, 0.0, 0.0, 0.0, 0.0, 0.0, 0.0, 0.0, 0.0)",0,0,0,,5.06e-06,-3.1600000000000007e-06,1.7690000000000002e-05,"(0.0, 0.0, 0.0, 0.0, 0.0, 0.0, 0.0, 0.0, 0.0)","$VNYMR,+065.733,+001.819,+015.938,+00.0506,-00.0316,+00.1769,+00.320,-02.735,-09.511,+00.000590,-00.000500,-00.000304*65
"
1698962795.685055,0,1698962795,650297641,GPS1_Frame,0,0,0,,0.10790732766993145,0.08842121764146826,0.5355133449022442,0.8329244589622424,"(0.0, 0.0, 0.0, 0.0, 0.0, 0.0, 0.0, 0.0, 0.0)",0.000102,-0.001539,0.000244,"(0.0, 0.0, 0.0, 0.0, 0.0, 0.0, 0.0, 0.0, 0.0)",0.276,-2.725,-9.524,"(0.0, 0.0, 0.0, 0.0, 0.0, 0.0, 0.0, 0.0, 0.0)",0,0,0,,4.93e-06,-3.96e-06,1.7690000000000002e-05,"(0.0, 0.0, 0.0, 0.0, 0.0, 0.0, 0.0, 0.0, 0.0)","$VNYMR,+065.731,+001.818,+015.938,+00.0493,-00.0396,+00.1769,+00.276,-02.725,-09.524,+00.000102,-00.001539,+00.000244*61
"
1698962795.7284079,0,1698962795,675414085,GPS1_Frame,0,0,0,,0.10791905305566464,0.08840389673236433,0.5354937197046857,0.8329373957188749,"(0.0, 0.0, 0.0, 0.0, 0.0, 0.0, 0.0, 0.0, 0.0)",0.000162,0.001325,-0.000202,"(0.0, 0.0, 0.0, 0.0, 0.0, 0.0, 0.0, 0.0, 0.0)",0.275,-2.726,-9.486,"(0.0, 0.0, 0.0, 0.0, 0.0, 0.0, 0.0, 0.0, 0.0)",0,0,0,,4.94e-06,-3.5000000000000004e-06,1.743e-05,"(0.0, 0.0, 0.0, 0.0, 0.0, 0.0, 0.0, 0.0, 0.0)","$VNYMR,+065.728,+001.816,+015.938,+00.0494,-00.0350,+00.1743,+00.275,-02.726,-09.486,+00.000162,+00.001325,-00.000202*64
"
1698962795.7287462,0,1698962795,700799942,GPS1_Frame,0,0,0,,0.10793513362499589,0.08841135903743737,0.5354776391353547,0.8329448580239479,"(0.0, 0.0, 0.0, 0.0, 0.0, 0.0, 0.0, 0.0, 0.0)",0.000725,0.001156,-0.0005,"(0.0, 0.0, 0.0, 0.0, 0.0, 0.0, 0.0, 0.0, 0.0)",0.281,-2.691,-9.494,"(0.0, 0.0, 0.0, 0.0, 0.0, 0.0, 0.0, 0.0, 0.0)",0,0,0,,5.04e-06,-3.7300000000000003e-06,1.7690000000000002e-05,"(0.0, 0.0, 0.0, 0.0, 0.0, 0.0, 0.0, 0.0, 0.0)","$VNYMR,+065.726,+001.816,+015.940,+00.0504,-00.0373,+00.1769,+00.281,-02.691,-09.494,+00.000725,+00.001156,-00.000500*67
"
1698962795.774074,0,1698962795,751333951,GPS1_Frame,0,0,0,,0.10794787907140907,0.08840784193896253,0.5354706893444178,0.8329480474439531,"(0.0, 0.0, 0.0, 0.0, 0.0, 0.0, 0.0, 0.0, 0.0)",0.000204,0.000503,-0.000281,"(0.0, 0.0, 0.0, 0.0, 0.0, 0.0, 0.0, 0.0, 0.0)",0.294,-2.694,-9.554,"(0.0, 0.0, 0.0, 0.0, 0.0, 0.0, 0.0, 0.0, 0.0)",0,0,0,,4.83e-06,-3.84e-06,1.7440000000000002e-05,"(0.0, 0.0, 0.0, 0.0, 0.0, 0.0, 0.0, 0.0, 0.0)","$VNYMR,+065.725,+001.815,+015.941,+00.0483,-00.0384,+00.1744,+00.294,-02.694,-09.554,+00.000204,+00.000503,-00.000281*6E
"
1698962795.7742472,0,1698962795,727283716,GPS1_Frame,0,0,0,,0.10794633604704132,0.0884097259714075,0.5354852269487862,0.8329387015905113,"(0.0, 0.0, 0.0, 0.0, 0.0, 0.0, 0.0, 0.0, 0.0)",0.000435,-0.0014,-0.000133,"(0.0, 0.0, 0.0, 0.0, 0.0, 0.0, 0.0, 0.0, 0.0)",0.292,-2.714,-9.545,"(0.0, 0.0, 0.0, 0.0, 0.0, 0.0, 0.0, 0.0, 0.0)",0,0,0,,4.85e-06,-2.93e-06,1.717e-05,"(0.0, 0.0, 0.0, 0.0, 0.0, 0.0, 0.0, 0.0, 0.0)","$VNYMR,+065.727,+001.815,+015.941,+00.0485,-00.0293,+00.1717,+00.292,-02.714,-09.545,+00.000435,-00.001400,-00.000133*6F
"
1698962795.8204708,0,1698962795,775406837,GPS1_Frame,0,0,0,,0.10793804643434209,0.08839124813263946,0.5354733226949141,0.8329493898596483,"(0.0, 0.0, 0.0, 0.0, 0.0, 0.0, 0.0, 0.0, 0.0)",0.000541,0.000741,-0.000459,"(0.0, 0.0, 0.0, 0.0, 0.0, 0.0, 0.0, 0.0, 0.0)",0.303,-2.699,-9.52,"(0.0, 0.0, 0.0, 0.0, 0.0, 0.0, 0.0, 0.0, 0.0)",0,0,0,,4.950000000000001e-06,-3.27e-06,1.718e-05,"(0.0, 0.0, 0.0, 0.0, 0.0, 0.0, 0.0, 0.0, 0.0)","$VNYMR,+065.725,+001.814,+015.939,+00.0495,-00.0327,+00.1718,+00.303,-02.699,-09.520,+00.000541,+00.000741,-00.000459*67
"
1698962795.8208778,0,1698962795,800926923,GPS1_Frame,0,0,0,,0.10794531528490976,0.08839592101554251,0.53547255131537,0.8329484478907827,"(0.0, 0.0, 0.0, 0.0, 0.0, 0.0, 0.0, 0.0, 0.0)",0.000552,0.000204,0.00077,"(0.0, 0.0, 0.0, 0.0, 0.0, 0.0, 0.0, 0.0, 0.0)",0.352,-2.733,-9.528,"(0.0, 0.0, 0.0, 0.0, 0.0, 0.0, 0.0, 0.0, 0.0)",0,0,0,,5.04e-06,-3.84e-06,1.77e-05,"(0.0, 0.0, 0.0, 0.0, 0.0, 0.0, 0.0, 0.0, 0.0)","$VNYMR,+065.725,+001.814,+015.940,+00.0504,-00.0384,+00.1770,+00.352,-02.733,-09.528,+00.000552,+00.000204,+00.000770*62
"
1698962795.8604672,0,1698962795,824549913,GPS1_Frame,0,0,0,,0.10793411278733887,0.08839755429946503,0.5354649633909949,0.8329546042080347,"(0.0, 0.0, 0.0, 0.0, 0.0, 0.0, 0.0, 0.0, 0.0)",-0.001085,-4.7e-05,-5.4e-05,"(0.0, 0.0, 0.0, 0.0, 0.0, 0.0, 0.0, 0.0, 0.0)",0.339,-2.725,-9.55,"(0.0, 0.0, 0.0, 0.0, 0.0, 0.0, 0.0, 0.0, 0.0)",0,0,0,,4.950000000000001e-06,-3.38e-06,1.756e-05,"(0.0, 0.0, 0.0, 0.0, 0.0, 0.0, 0.0, 0.0, 0.0)","$VNYMR,+065.724,+001.815,+015.939,+00.0495,-00.0338,+00.1756,+00.339,-02.725,-09.550,-00.001085,-00.000047,-00.000054*6F
"
1698962795.8639562,0,1698962795,850008726,GPS1_Frame,0,0,0,,0.10793000625306846,0.08838751711335599,0.5354813628761879,0.8329456588403646,"(0.0, 0.0, 0.0, 0.0, 0.0, 0.0, 0.0, 0.0, 0.0)",-0.000989,0.000222,-0.000213,"(0.0, 0.0, 0.0, 0.0, 0.0, 0.0, 0.0, 0.0, 0.0)",0.318,-2.707,-9.503,"(0.0, 0.0, 0.0, 0.0, 0.0, 0.0, 0.0, 0.0, 0.0)",0,0,0,,5.15e-06,-3.85e-06,1.7440000000000002e-05,"(0.0, 0.0, 0.0, 0.0, 0.0, 0.0, 0.0, 0.0, 0.0)","$VNYMR,+065.726,+001.814,+015.938,+00.0515,-00.0385,+00.1744,+00.318,-02.707,-09.503,-00.000989,+00.000222,-00.000213*66
"
1698962795.9091375,0,1698962795,874979734,GPS1_Frame,0,0,0,,0.10793471137812533,0.08838026907188791,0.5354824531915591,0.8329451173051267,"(0.0, 0.0, 0.0, 0.0, 0.0, 0.0, 0.0, 0.0, 0.0)",0.000623,0.000736,0.000162,"(0.0, 0.0, 0.0, 0.0, 0.0, 0.0, 0.0, 0.0, 0.0)",0.32,-2.714,-9.458,"(0.0, 0.0, 0.0, 0.0, 0.0, 0.0, 0.0, 0.0, 0.0)",0,0,0,,5.15e-06,-3.85e-06,1.77e-05,"(0.0, 0.0, 0.0, 0.0, 0.0, 0.0, 0.0, 0.0, 0.0)","$VNYMR,+065.726,+001.813,+015.938,+00.0515,-00.0385,+00.1770,+00.320,-02.714,-09.458,+00.000623,+00.000736,+00.000162*6A
"
1698962795.9526815,0,1698962795,901075601,GPS1_Frame,0,0,0,,0.10793496093196336,0.08839501582738457,0.5355023977873902,0.8329306978071149,"(0.0, 0.0, 0.0, 0.0, 0.0, 0.0, 0.0, 0.0, 0.0)",-0.000417,0.000934,0.000342,"(0.0, 0.0, 0.0, 0.0, 0.0, 0.0, 0.0, 0.0, 0.0)",0.283,-2.727,-9.494,"(0.0, 0.0, 0.0, 0.0, 0.0, 0.0, 0.0, 0.0, 0.0)",0,0,0,,4.93e-06,-3.96e-06,1.7820000000000002e-05,"(0.0, 0.0, 0.0, 0.0, 0.0, 0.0, 0.0, 0.0, 0.0)","$VNYMR,+065.729,+001.814,+015.939,+00.0493,-00.0396,+00.1782,+00.283,-02.727,-09.494,-00.000417,+00.000934,+00.000342*64
"
1698962795.9531038,0,1698962795,925590276,GPS1_Frame,0,0,0,,0.10795009759283057,0.08838707725686643,0.5355183444557784,0.8329193260784802,"(0.0, 0.0, 0.0, 0.0, 0.0, 0.0, 0.0, 0.0, 0.0)",-0.000549,-0.000606,0.000411,"(0.0, 0.0, 0.0, 0.0, 0.0, 0.0, 0.0, 0.0, 0.0)",0.272,-2.726,-9.499,"(0.0, 0.0, 0.0, 0.0, 0.0, 0.0, 0.0, 0.0, 0.0)",0,0,0,,4.94e-06,-3.84e-06,1.7690000000000002e-05,"(0.0, 0.0, 0.0, 0.0, 0.0, 0.0, 0.0, 0.0, 0.0)","$VNYMR,+065.731,+001.812,+015.940,+00.0494,-00.0384,+00.1769,+00.272,-02.726,-09.499,-00.000549,-00.000606,+00.000411*65
"
1698962796.0006416,0,1698962795,951739788,GPS1_Frame,0,0,0,,0.10796463476103167,0.08839642380171941,0.5355168017287,0.8329174418669885,"(0.0, 0.0, 0.0, 0.0, 0.0, 0.0, 0.0, 0.0, 0.0)",0.000747,-0.000191,-5.8e-05,"(0.0, 0.0, 0.0, 0.0, 0.0, 0.0, 0.0, 0.0, 0.0)",0.279,-2.714,-9.529,"(0.0, 0.0, 0.0, 0.0, 0.0, 0.0, 0.0, 0.0, 0.0)",0,0,0,,5.25e-06,-3.7400000000000006e-06,1.795e-05,"(0.0, 0.0, 0.0, 0.0, 0.0, 0.0, 0.0, 0.0, 0.0)","$VNYMR,+065.731,+001.812,+015.942,+00.0525,-00.0374,+00.1795,+00.279,-02.714,-09.529,+00.000747,-00.000191,-00.000058*6C
"
1698962796.00119,0,1698962795,974756002,GPS1_Frame,0,0,0,,0.10796856882180501,0.08839011819702969,0.5355251607426331,0.8329122266861398,"(0.0, 0.0, 0.0, 0.0, 0.0, 0.0, 0.0, 0.0, 0.0)",0.00083,0.000198,0.000234,"(0.0, 0.0, 0.0, 0.0, 0.0, 0.0, 0.0, 0.0, 0.0)",0.279,-2.701,-9.482,"(0.0, 0.0, 0.0, 0.0, 0.0, 0.0, 0.0, 0.0, 0.0)",0,0,0,,5.04e-06,-4.07e-06,1.77e-05,"(0.0, 0.0, 0.0, 0.0, 0.0, 0.0, 0.0, 0.0, 0.0)","$VNYMR,+065.732,+001.811,+015.942,+00.0504,-00.0407,+00.1770,+00.279,-02.701,-09.482,+00.000830,+00.000198,+00.000234*6D
"
1698962796.0488667,0,1698962796,794649,GPS1_Frame,0,0,0,,0.10797429455146224,0.088396676052716,0.5355389263356721,0.832901937660239,"(0.0, 0.0, 0.0, 0.0, 0.0, 0.0, 0.0, 0.0, 0.0)",0.000709,0.000504,-0.001175,"(0.0, 0.0, 0.0, 0.0, 0.0, 0.0, 0.0, 0.0, 0.0)",0.308,-2.705,-9.511,"(0.0, 0.0, 0.0, 0.0, 0.0, 0.0, 0.0, 0.0, 0.0)",0,0,0,,4.93e-06,-3.96e-06,1.757e-05,"(0.0, 0.0, 0.0, 0.0, 0.0, 0.0, 0.0, 0.0, 0.0)","$VNYMR,+065.734,+001.811,+015.943,+00.0493,-00.0396,+00.1757,+00.308,-02.705,-09.511,+00.000709,+00.000504,-00.001175*62
"
1698962796.0489423,0,1698962796,25890827,GPS1_Frame,0,0,0,,0.10797011150394914,0.0883882337765526,0.5355106236003329,0.8329215732365617,"(0.0, 0.0, 0.0, 0.0, 0.0, 0.0, 0.0, 0.0, 0.0)",-7.1e-05,0.000102,-0.000618,"(0.0, 0.0, 0.0, 0.0, 0.0, 0.0, 0.0, 0.0, 0.0)",0.32,-2.711,-9.526,"(0.0, 0.0, 0.0, 0.0, 0.0, 0.0, 0.0, 0.0, 0.0)",0,0,0,,4.84e-06,-3.61e-06,1.7310000000000002e-05,"(0.0, 0.0, 0.0, 0.0, 0.0, 0.0, 0.0, 0.0, 0.0)","$VNYMR,+065.730,+001.811,+015.942,+00.0484,-00.0361,+00.1731,+00.320,-02.711,-09.526,-00.000071,+00.000102,-00.000618*63
"
1698962796.088175,0,1698962796,51484107,GPS1_Frame,0,0,0,,0.10796361417586339,0.08838261840450196,0.5355041262722471,0.8329271886086123,"(0.0, 0.0, 0.0, 0.0, 0.0, 0.0, 0.0, 0.0, 0.0)",0.000605,-0.000261,-5e-05,"(0.0, 0.0, 0.0, 0.0, 0.0, 0.0, 0.0, 0.0, 0.0)",0.337,-2.721,-9.534,"(0.0, 0.0, 0.0, 0.0, 0.0, 0.0, 0.0, 0.0, 0.0)",0,0,0,,4.84e-06,-3.5000000000000004e-06,1.781e-05,"(0.0, 0.0, 0.0, 0.0, 0.0, 0.0, 0.0, 0.0, 0.0)","$VNYMR,+065.729,+001.811,+015.941,+00.0484,-00.0350,+00.1781,+00.337,-02.721,-09.534,+00.000605,-00.000261,-00.000050*6E
"
1698962796.0895243,0,1698962796,75740098,GPS1_Frame,0,0,0,,0.10795865920301692,0.08837511892525322,0.53548309134472,0.8329421499371589,"(0.0, 0.0, 0.0, 0.0, 0.0, 0.0, 0.0, 0.0, 0.0)",-0.000512,0.000241,-0.000309,"(0.0, 0.0, 0.0, 0.0, 0.0, 0.0, 0.0, 0.0, 0.0)",0.343,-2.723,-9.526,"(0.0, 0.0, 0.0, 0.0, 0.0, 0.0, 0.0, 0.0, 0.0)",0,0,0,,4.85e-06,-3.1500000000000003e-06,1.565e-05,"(0.0, 0.0, 0.0, 0.0, 0.0, 0.0, 0.0, 0.0, 0.0)","$VNYMR,+065.726,+001.811,+015.940,+00.0485,-00.0315,+00.1565,+00.343,-02.723,-09.526,-00.000512,+00.000241,-00.000309*62
"
1698962796.1354747,0,1698962796,105049610,GPS1_Frame,0,0,0,,0.10794668530351874,0.08837769399578611,0.5354827722456678,0.8329436337256348,"(0.0, 0.0, 0.0, 0.0, 0.0, 0.0, 0.0, 0.0, 0.0)",-0.000518,0.000369,0.001297,"(0.0, 0.0, 0.0, 0.0, 0.0, 0.0, 0.0, 0.0, 0.0)",0.342,-2.712,-9.493,"(0.0, 0.0, 0.0, 0.0, 0.0, 0.0, 0.0, 0.0, 0.0)",0,0,0,,5.25e-06,-3.96e-06,1.7199999999999998e-05,"(0.0, 0.0, 0.0, 0.0, 0.0, 0.0, 0.0, 0.0, 0.0)","$VNYMR,+065.726,+001.812,+015.939,+00.0525,-00.0396,+00.1720,+00.342,-02.712,-09.493,-00.000518,+00.000369,+00.001297*60
"
1698962796.1764076,0,1698962796,126945972,GPS1_Frame,0,0,0,,0.10795241152410792,0.0883842510996307,0.5354965384952961,0.8329333456305151,"(0.0, 0.0, 0.0, 0.0, 0.0, 0.0, 0.0, 0.0, 0.0)",0.001308,0.000204,0.001958,"(0.0, 0.0, 0.0, 0.0, 0.0, 0.0, 0.0, 0.0, 0.0)",0.321,-2.728,-9.529,"(0.0, 0.0, 0.0, 0.0, 0.0, 0.0, 0.0, 0.0, 0.0)",0,0,0,,5.15e-06,-3.7300000000000003e-06,1.77e-05,"(0.0, 0.0, 0.0, 0.0, 0.0, 0.0, 0.0, 0.0, 0.0)","$VNYMR,+065.728,+001.812,+015.940,+00.0515,-00.0373,+00.1770,+00.321,-02.728,-09.529,+00.001308,+00.000204,+00.001958*63
"
1698962796.1764402,0,1698962796,151077032,GPS1_Frame,0,0,0,,0.10794616355109243,0.08839338307611047,0.5355099854608806,0.8329245410447744,"(0.0, 0.0, 0.0, 0.0, 0.0, 0.0, 0.0, 0.0, 0.0)",0.00036,0.000856,-8.8e-05,"(0.0, 0.0, 0.0, 0.0, 0.0, 0.0, 0.0, 0.0, 0.0)",0.3,-2.711,-9.52,"(0.0, 0.0, 0.0, 0.0, 0.0, 0.0, 0.0, 0.0, 0.0)",0,0,0,,4.84e-06,-3.5000000000000004e-06,1.73e-05,"(0.0, 0.0, 0.0, 0.0, 0.0, 0.0, 0.0, 0.0, 0.0)","$VNYMR,+065.730,+001.813,+015.940,+00.0484,-00.0350,+00.1730,+00.300,-02.711,-09.520,+00.000360,+00.000856,-00.000088*66
"
1698962796.2209222,0,1698962796,175429105,GPS1_Frame,0,0,0,,0.10795968023466276,0.08838892418513011,0.5354957671768116,0.8329324035362909,"(0.0, 0.0, 0.0, 0.0, 0.0, 0.0, 0.0, 0.0, 0.0)",0.000369,0.000833,0.000725,"(0.0, 0.0, 0.0, 0.0, 0.0, 0.0, 0.0, 0.0, 0.0)",0.3,-2.721,-9.463,"(0.0, 0.0, 0.0, 0.0, 0.0, 0.0, 0.0, 0.0, 0.0)",0,0,0,,4.950000000000001e-06,-3.39e-06,1.743e-05,"(0.0, 0.0, 0.0, 0.0, 0.0, 0.0, 0.0, 0.0, 0.0)","$VNYMR,+065.728,+001.812,+015.941,+00.0495,-00.0339,+00.1743,+00.300,-02.721,-09.463,+00.000369,+00.000833,+00.000725*6D
"
1698962796.221055,0,1698962796,201438665,GPS1_Frame,0,0,0,,0.1079589088916773,0.08838986630770425,0.5355030358628655,0.8329277304224413,"(0.0, 0.0, 0.0, 0.0, 0.0, 0.0, 0.0, 0.0, 0.0)",-0.000241,-0.001013,-0.001165,"(0.0, 0.0, 0.0, 0.0, 0.0, 0.0, 0.0, 0.0, 0.0)",0.272,-2.691,-9.496,"(0.0, 0.0, 0.0, 0.0, 0.0, 0.0, 0.0, 0.0, 0.0)",0,0,0,,4.83e-06,-3.84e-06,1.7440000000000002e-05,"(0.0, 0.0, 0.0, 0.0, 0.0, 0.0, 0.0, 0.0, 0.0)","$VNYMR,+065.729,+001.812,+015.941,+00.0483,-00.0384,+00.1744,+00.272,-02.691,-09.496,-00.000241,-00.001013,-00.001165*6B
"
1698962796.2646618,0,1698962796,227555990,GPS1_Frame,0,0,0,,0.1079589088916773,0.08838986630770425,0.5355030358628655,0.8329277304224413,"(0.0, 0.0, 0.0, 0.0, 0.0, 0.0, 0.0, 0.0, 0.0)",-1.4e-05,0.001495,0.00042,"(0.0, 0.0, 0.0, 0.0, 0.0, 0.0, 0.0, 0.0, 0.0)",0.259,-2.698,-9.519,"(0.0, 0.0, 0.0, 0.0, 0.0, 0.0, 0.0, 0.0, 0.0)",0,0,0,,5.06e-06,-2.93e-06,1.743e-05,"(0.0, 0.0, 0.0, 0.0, 0.0, 0.0, 0.0, 0.0, 0.0)","$VNYMR,+065.729,+001.812,+015.941,+00.0506,-00.0293,+00.1743,+00.259,-02.698,-09.519,-00.000014,+00.001495,+00.000420*6C
"
1698962796.264729,0,1698962796,250881195,GPS1_Frame,0,0,0,,0.10795968023466276,0.08838892418513011,0.5354957671768116,0.8329324035362909,"(0.0, 0.0, 0.0, 0.0, 0.0, 0.0, 0.0, 0.0, 0.0)",0.000539,0.001878,0.000136,"(0.0, 0.0, 0.0, 0.0, 0.0, 0.0, 0.0, 0.0, 0.0)",0.326,-2.701,-9.506,"(0.0, 0.0, 0.0, 0.0, 0.0, 0.0, 0.0, 0.0, 0.0)",0,0,0,,4.83e-06,-3.95e-06,1.7690000000000002e-05,"(0.0, 0.0, 0.0, 0.0, 0.0, 0.0, 0.0, 0.0, 0.0)","$VNYMR,+065.728,+001.812,+015.941,+00.0483,-00.0395,+00.1769,+00.326,-02.701,-09.506,+00.000539,+00.001878,+00.000136*69
"
1698962796.3088894,0,1698962796,275905370,GPS1_Frame,0,0,0,,0.10795968023466276,0.08838892418513011,0.5354957671768116,0.8329324035362909,"(0.0, 0.0, 0.0, 0.0, 0.0, 0.0, 0.0, 0.0, 0.0)",-3.3e-05,8.8e-05,0.000761,"(0.0, 0.0, 0.0, 0.0, 0.0, 0.0, 0.0, 0.0, 0.0)",0.343,-2.731,-9.514,"(0.0, 0.0, 0.0, 0.0, 0.0, 0.0, 0.0, 0.0, 0.0)",0,0,0,,5.1600000000000006e-06,-3.39e-06,1.7440000000000002e-05,"(0.0, 0.0, 0.0, 0.0, 0.0, 0.0, 0.0, 0.0, 0.0)","$VNYMR,+065.728,+001.812,+015.941,+00.0516,-00.0339,+00.1744,+00.343,-02.731,-09.514,-00.000033,+00.000088,+00.000761*65
"
1698962796.310263,0,1698962796,302130222,GPS1_Frame,0,0,0,,0.10794377246860178,0.08839780500324278,0.5354870889267273,0.8329391020048433,"(0.0, 0.0, 0.0, 0.0, 0.0, 0.0, 0.0, 0.0, 0.0)",-0.000174,-0.001292,0.000153,"(0.0, 0.0, 0.0, 0.0, 0.0, 0.0, 0.0, 0.0, 0.0)",0.351,-2.722,-9.488,"(0.0, 0.0, 0.0, 0.0, 0.0, 0.0, 0.0, 0.0, 0.0)",0,0,0,,5.15e-06,-3.7300000000000003e-06,1.77e-05,"(0.0, 0.0, 0.0, 0.0, 0.0, 0.0, 0.0, 0.0, 0.0)","$VNYMR,+065.727,+001.814,+015.940,+00.0515,-00.0373,+00.1770,+00.351,-02.722,-09.488,-00.000174,-00.001292,+00.000153*69
"
1698962796.3531842,0,1698962796,325775146,GPS1_Frame,0,0,0,,0.10793102706483582,0.08840132185689609,0.5354940386654911,0.8329359124472931,"(0.0, 0.0, 0.0, 0.0, 0.0, 0.0, 0.0, 0.0, 0.0)",0.000117,0.001014,-0.000164,"(0.0, 0.0, 0.0, 0.0, 0.0, 0.0, 0.0, 0.0, 0.0)",0.371,-2.728,-9.499,"(0.0, 0.0, 0.0, 0.0, 0.0, 0.0, 0.0, 0.0, 0.0)",0,0,0,,5.04e-06,-3.84e-06,1.757e-05,"(0.0, 0.0, 0.0, 0.0, 0.0, 0.0, 0.0, 0.0, 0.0)","$VNYMR,+065.728,+001.815,+015.939,+00.0504,-00.0384,+00.1757,+00.371,-02.728,-09.499,+00.000117,+00.001014,-00.000164*67
"
1698962796.3968644,0,1698962796,375744104,GPS1_Frame,0,0,0,,0.10791511930812561,0.08841020293781016,0.5354853605013022,0.8329426101058816,"(0.0, 0.0, 0.0, 0.0, 0.0, 0.0, 0.0, 0.0, 0.0)",-0.000704,0.000944,0.001419,"(0.0, 0.0, 0.0, 0.0, 0.0, 0.0, 0.0, 0.0, 0.0)",0.32,-2.736,-9.53,"(0.0, 0.0, 0.0, 0.0, 0.0, 0.0, 0.0, 0.0, 0.0)",0,0,0,,5.15e-06,-3.7300000000000003e-06,1.719e-05,"(0.0, 0.0, 0.0, 0.0, 0.0, 0.0, 0.0, 0.0, 0.0)","$VNYMR,+065.727,+001.817,+015.938,+00.0515,-00.0373,+00.1719,+00.320,-02.736,-09.530,-00.000704,+00.000944,+00.001419*67
"
1698962796.3969104,0,1698962796,350138425,GPS1_Frame,0,0,0,,0.10792632180156442,0.0884085697932644,0.5354929482147609,0.8329364539157583,"(0.0, 0.0, 0.0, 0.0, 0.0, 0.0, 0.0, 0.0, 0.0)",-0.001426,0.001261,0.000696,"(0.0, 0.0, 0.0, 0.0, 0.0, 0.0, 0.0, 0.0, 0.0)",0.34,-2.726,-9.502,"(0.0, 0.0, 0.0, 0.0, 0.0, 0.0, 0.0, 0.0, 0.0)",0,0,0,,4.83e-06,-3.7300000000000003e-06,1.7310000000000002e-05,"(0.0, 0.0, 0.0, 0.0, 0.0, 0.0, 0.0, 0.0, 0.0)","$VNYMR,+065.728,+001.816,+015.939,+00.0483,-00.0373,+00.1731,+00.340,-02.726,-09.502,-00.001426,+00.001261,+00.000696*61
"
1698962796.442472,0,1698962796,400284767,GPS1_Frame,0,0,0,,0.10792632180156442,0.0884085697932644,0.5354929482147609,0.8329364539157583,"(0.0, 0.0, 0.0, 0.0, 0.0, 0.0, 0.0, 0.0, 0.0)",-0.000543,-0.000383,-0.000464,"(0.0, 0.0, 0.0, 0.0, 0.0, 0.0, 0.0, 0.0, 0.0)",0.311,-2.732,-9.508,"(0.0, 0.0, 0.0, 0.0, 0.0, 0.0, 0.0, 0.0, 0.0)",0,0,0,,4.92e-06,-4.2999999999999995e-06,1.757e-05,"(0.0, 0.0, 0.0, 0.0, 0.0, 0.0, 0.0, 0.0, 0.0)","$VNYMR,+065.728,+001.816,+015.939,+00.0492,-00.0430,+00.1757,+00.311,-02.732,-09.508,-00.000543,-00.000383,-00.000464*6A
"
1698962796.4426475,0,1698962796,426353216,GPS1_Frame,0,0,0,,0.10793359053924514,0.08841324284743177,0.5354921766840559,0.83293551204921,"(0.0, 0.0, 0.0, 0.0, 0.0, 0.0, 0.0, 0.0, 0.0)",0.000564,0.002815,-0.000827,"(0.0, 0.0, 0.0, 0.0, 0.0, 0.0, 0.0, 0.0, 0.0)",0.286,-2.687,-9.551,"(0.0, 0.0, 0.0, 0.0, 0.0, 0.0, 0.0, 0.0, 0.0)",0,0,0,,5.2600000000000005e-06,-3.5100000000000003e-06,1.757e-05,"(0.0, 0.0, 0.0, 0.0, 0.0, 0.0, 0.0, 0.0, 0.0)","$VNYMR,+065.728,+001.816,+015.940,+00.0526,-00.0351,+00.1757,+00.286,-02.687,-09.551,+00.000564,+00.002815,-00.000827*6E
"
1698962796.4852192,0,1698962796,450381994,GPS1_Frame,0,0,0,,0.10792315966076657,0.08841393412189111,0.5354773201486612,0.8329463412899626,"(0.0, 0.0, 0.0, 0.0, 0.0, 0.0, 0.0, 0.0, 0.0)",0.000103,0.00058,-0.000293,"(0.0, 0.0, 0.0, 0.0, 0.0, 0.0, 0.0, 0.0, 0.0)",0.306,-2.715,-9.506,"(0.0, 0.0, 0.0, 0.0, 0.0, 0.0, 0.0, 0.0, 0.0)",0,0,0,,4.84e-06,-3.61e-06,1.756e-05,"(0.0, 0.0, 0.0, 0.0, 0.0, 0.0, 0.0, 0.0, 0.0)","$VNYMR,+065.726,+001.817,+015.939,+00.0484,-00.0361,+00.1756,+00.306,-02.715,-09.506,+00.000103,+00.000580,-00.000293*66
"
1698962796.4890635,0,1698962796,480663299,GPS1_Frame,0,0,0,,0.10793436208623036,0.08841230094580108,0.5354849079300951,0.832940185068295,"(0.0, 0.0, 0.0, 0.0, 0.0, 0.0, 0.0, 0.0, 0.0)",0.000281,-0.00079,-0.000296,"(0.0, 0.0, 0.0, 0.0, 0.0, 0.0, 0.0, 0.0, 0.0)",0.304,-2.736,-9.54,"(0.0, 0.0, 0.0, 0.0, 0.0, 0.0, 0.0, 0.0, 0.0)",0,0,0,,5.050000000000001e-06,-3.39e-06,1.756e-05,"(0.0, 0.0, 0.0, 0.0, 0.0, 0.0, 0.0, 0.0, 0.0)","$VNYMR,+065.727,+001.816,+015.940,+00.0505,-00.0339,+00.1756,+00.304,-02.736,-09.540,+00.000281,-00.000790,-00.000296*65
"
1698962796.5329573,0,1698962796,500972509,GPS1_Frame,0,0,0,,0.10794138168341047,0.08840222710941917,0.5354641919564194,0.8329536622734965,"(0.0, 0.0, 0.0, 0.0, 0.0, 0.0, 0.0, 0.0, 0.0)",-0.000705,-0.000166,0.000179,"(0.0, 0.0, 0.0, 0.0, 0.0, 0.0, 0.0, 0.0, 0.0)",0.301,-2.728,-9.501,"(0.0, 0.0, 0.0, 0.0, 0.0, 0.0, 0.0, 0.0, 0.0)",0,0,0,,4.84e-06,-3.5000000000000004e-06,1.7680000000000004e-05,"(0.0, 0.0, 0.0, 0.0, 0.0, 0.0, 0.0, 0.0, 0.0)","$VNYMR,+065.724,+001.815,+015.940,+00.0484,-00.0350,+00.1768,+00.301,-02.728,-09.501,-00.000705,-00.000166,+00.000179*64
"
1698962796.5787563,0,1698962796,525754928,GPS1_Frame,0,0,0,,0.10794531528490976,0.08839592101554251,0.53547255131537,0.8329484478907827,"(0.0, 0.0, 0.0, 0.0, 0.0, 0.0, 0.0, 0.0, 0.0)",-0.001288,8.9e-05,-0.00055,"(0.0, 0.0, 0.0, 0.0, 0.0, 0.0, 0.0, 0.0, 0.0)",0.305,-2.713,-9.488,"(0.0, 0.0, 0.0, 0.0, 0.0, 0.0, 0.0, 0.0, 0.0)",0,0,0,,5.15e-06,-3.85e-06,1.77e-05,"(0.0, 0.0, 0.0, 0.0, 0.0, 0.0, 0.0, 0.0, 0.0)","$VNYMR,+065.725,+001.814,+015.940,+00.0515,-00.0385,+00.1770,+00.305,-02.713,-09.488,-00.001288,+00.000089,-00.000550*6E
"
1698962796.5792382,0,1698962796,554929494,GPS1_Frame,0,0,0,,0.10793804643434209,0.08839124813263946,0.5354733226949141,0.8329493898596483,"(0.0, 0.0, 0.0, 0.0, 0.0, 0.0, 0.0, 0.0, 0.0)",-3.1e-05,0.00073,0.000207,"(0.0, 0.0, 0.0, 0.0, 0.0, 0.0, 0.0, 0.0, 0.0)",0.361,-2.709,-9.49,"(0.0, 0.0, 0.0, 0.0, 0.0, 0.0, 0.0, 0.0, 0.0)",0,0,0,,5.050000000000001e-06,-3.6200000000000005e-06,1.706e-05,"(0.0, 0.0, 0.0, 0.0, 0.0, 0.0, 0.0, 0.0, 0.0)","$VNYMR,+065.725,+001.814,+015.939,+00.0505,-00.0362,+00.1706,+00.361,-02.709,-09.490,-00.000031,+00.000730,+00.000207*6E
"
1698962796.6209698,0,1698962796,599988222,GPS1_Frame,0,0,0,,0.10792684388304762,0.08839288148277906,0.5354657347847925,0.8329555460791398,"(0.0, 0.0, 0.0, 0.0, 0.0, 0.0, 0.0, 0.0, 0.0)",4.2e-05,0.000349,0.000484,"(0.0, 0.0, 0.0, 0.0, 0.0, 0.0, 0.0, 0.0, 0.0)",0.317,-2.74,-9.524,"(0.0, 0.0, 0.0, 0.0, 0.0, 0.0, 0.0, 0.0, 0.0)",0,0,0,,5.050000000000001e-06,-3.39e-06,1.7440000000000002e-05,"(0.0, 0.0, 0.0, 0.0, 0.0, 0.0, 0.0, 0.0, 0.0)","$VNYMR,+065.724,+001.815,+015.938,+00.0505,-00.0339,+00.1744,+00.317,-02.740,-09.524,+00.000042,+00.000349,+00.000484*60
"
1698962796.6210346,0,1698962796,579293251,GPS1_Frame,0,0,0,,0.10793804643434209,0.08839124813263946,0.5354733226949141,0.8329493898596483,"(0.0, 0.0, 0.0, 0.0, 0.0, 0.0, 0.0, 0.0, 0.0)",-0.000588,-0.000388,0.000644,"(0.0, 0.0, 0.0, 0.0, 0.0, 0.0, 0.0, 0.0, 0.0)",0.342,-2.726,-9.484,"(0.0, 0.0, 0.0, 0.0, 0.0, 0.0, 0.0, 0.0, 0.0)",0,0,0,,4.950000000000001e-06,-3.39e-06,1.705e-05,"(0.0, 0.0, 0.0, 0.0, 0.0, 0.0, 0.0, 0.0, 0.0)","$VNYMR,+065.725,+001.814,+015.939,+00.0495,-00.0339,+00.1705,+00.342,-02.726,-09.484,-00.000588,-00.000388,+00.000644*67
"
1698962796.668818,0,1698962796,649728298,GPS1_Frame,0,0,0,,0.10791230604980828,0.08838353582921289,0.5354672774500536,0.8329574296310505,"(0.0, 0.0, 0.0, 0.0, 0.0, 0.0, 0.0, 0.0, 0.0)",-0.001326,-0.000311,0.001756,"(0.0, 0.0, 0.0, 0.0, 0.0, 0.0, 0.0, 0.0, 0.0)",0.268,-2.717,-9.516,"(0.0, 0.0, 0.0, 0.0, 0.0, 0.0, 0.0, 0.0, 0.0)",0,0,0,,4.83e-06,-3.84e-06,1.7690000000000002e-05,"(0.0, 0.0, 0.0, 0.0, 0.0, 0.0, 0.0, 0.0, 0.0)","$VNYMR,+065.724,+001.815,+015.936,+00.0483,-00.0384,+00.1769,+00.268,-02.717,-09.516,-00.001326,-00.000311,+00.001756*62
"
1698962796.668942,0,1698962796,625892400,GPS1_Frame,0,0,0,,0.10791803228883916,0.08839009219780973,0.5354810438894946,0.8329471421063794,"(0.0, 0.0, 0.0, 0.0, 0.0, 0.0, 0.0, 0.0, 0.0)",-0.000628,0.001056,0.000897,"(0.0, 0.0, 0.0, 0.0, 0.0, 0.0, 0.0, 0.0, 0.0)",0.304,-2.709,-9.511,"(0.0, 0.0, 0.0, 0.0, 0.0, 0.0, 0.0, 0.0, 0.0)",0,0,0,,5.36e-06,-3.7400000000000006e-06,1.783e-05,"(0.0, 0.0, 0.0, 0.0, 0.0, 0.0, 0.0, 0.0, 0.0)","$VNYMR,+065.726,+001.815,+015.937,+00.0536,-00.0374,+00.1783,+00.304,-02.709,-09.511,-00.000628,+00.001056,+00.000897*68
"
1698962796.7131574,0,1698962796,675280809,GPS1_Frame,0,0,0,,0.10791880363379744,0.08838915043195122,0.5354737750340426,0.8329518150283122,"(0.0, 0.0, 0.0, 0.0, 0.0, 0.0, 0.0, 0.0, 0.0)",-0.001578,-0.000406,0.00082,"(0.0, 0.0, 0.0, 0.0, 0.0, 0.0, 0.0, 0.0, 0.0)",0.3,-2.712,-9.512,"(0.0, 0.0, 0.0, 0.0, 0.0, 0.0, 0.0, 0.0, 0.0)",0,0,0,,5.070000000000001e-06,-2.82e-06,1.717e-05,"(0.0, 0.0, 0.0, 0.0, 0.0, 0.0, 0.0, 0.0, 0.0)","$VNYMR,+065.725,+001.815,+015.937,+00.0507,-00.0282,+00.1717,+00.300,-02.712,-09.512,-00.001578,-00.000406,+00.000820*6C
"
1698962796.7132497,0,1698962796,702286243,GPS1_Frame,0,0,0,,0.10790760102536749,0.08839078395836743,0.5354661871701784,0.8329579709382743,"(0.0, 0.0, 0.0, 0.0, 0.0, 0.0, 0.0, 0.0, 0.0)",-0.000446,0.000813,0.00039,"(0.0, 0.0, 0.0, 0.0, 0.0, 0.0, 0.0, 0.0, 0.0)",0.286,-2.723,-9.504,"(0.0, 0.0, 0.0, 0.0, 0.0, 0.0, 0.0, 0.0, 0.0)",0,0,0,,4.950000000000001e-06,-3.27e-06,1.781e-05,"(0.0, 0.0, 0.0, 0.0, 0.0, 0.0, 0.0, 0.0, 0.0)","$VNYMR,+065.724,+001.816,+015.936,+00.0495,-00.0327,+00.1781,+00.286,-02.723,-09.504,-00.000446,+00.000813,+00.000390*6D
"
1698962796.758932,0,1698962796,726044654,GPS1_Frame,0,0,0,,0.10790605829872381,0.08839266728783046,0.5354807249477451,0.8329486251634087,"(0.0, 0.0, 0.0, 0.0, 0.0, 0.0, 0.0, 0.0, 0.0)",6.2e-05,-0.000995,0.000688,"(0.0, 0.0, 0.0, 0.0, 0.0, 0.0, 0.0, 0.0, 0.0)",0.316,-2.726,-9.539,"(0.0, 0.0, 0.0, 0.0, 0.0, 0.0, 0.0, 0.0, 0.0)",0,0,0,,4.970000000000001e-06,-2.47e-06,1.7290000000000002e-05,"(0.0, 0.0, 0.0, 0.0, 0.0, 0.0, 0.0, 0.0, 0.0)","$VNYMR,+065.726,+001.816,+015.936,+00.0497,-00.0247,+00.1729,+00.316,-02.726,-09.539,+00.000062,-00.000995,+00.000688*6A
"
1698962796.7674448,0,1698962796,752046585,GPS1_Frame,0,0,0,,0.10790682966615445,0.08839172562646463,0.5354734560793509,0.8329532980825581,"(0.0, 0.0, 0.0, 0.0, 0.0, 0.0, 0.0, 0.0, 0.0)",-0.000272,0.000772,0.000402,"(0.0, 0.0, 0.0, 0.0, 0.0, 0.0, 0.0, 0.0, 0.0)",0.31,-2.721,-9.5,"(0.0, 0.0, 0.0, 0.0, 0.0, 0.0, 0.0, 0.0, 0.0)",0,0,0,,4.62e-06,-3.95e-06,1.7680000000000004e-05,"(0.0, 0.0, 0.0, 0.0, 0.0, 0.0, 0.0, 0.0, 0.0)","$VNYMR,+065.725,+001.816,+015.936,+00.0462,-00.0395,+00.1768,+00.310,-02.721,-09.500,-00.000272,+00.000772,+00.000402*67
"
1698962796.809554,0,1698962796,776332616,GPS1_Frame,0,0,0,,0.10791178430154633,0.08839922366473192,0.5354944911538305,0.8329383374585599,"(0.0, 0.0, 0.0, 0.0, 0.0, 0.0, 0.0, 0.0, 0.0)",0.000361,-0.001139,-0.000717,"(0.0, 0.0, 0.0, 0.0, 0.0, 0.0, 0.0, 0.0, 0.0)",0.327,-2.716,-9.489,"(0.0, 0.0, 0.0, 0.0, 0.0, 0.0, 0.0, 0.0, 0.0)",0,0,0,,5.1600000000000006e-06,-3.5000000000000004e-06,1.7310000000000002e-05,"(0.0, 0.0, 0.0, 0.0, 0.0, 0.0, 0.0, 0.0, 0.0)","$VNYMR,+065.728,+001.816,+015.937,+00.0516,-00.0350,+00.1731,+00.327,-02.716,-09.489,+00.000361,-00.001139,-00.000717*66
"
1698962796.809569,0,1698962796,800959587,GPS1_Frame,0,0,0,,0.10792470275858393,0.08841205049394976,0.5354627824109562,0.8329556870054035,"(0.0, 0.0, 0.0, 0.0, 0.0, 0.0, 0.0, 0.0, 0.0)",6.6e-05,-0.00092,8.6e-05,"(0.0, 0.0, 0.0, 0.0, 0.0, 0.0, 0.0, 0.0, 0.0)",0.327,-2.722,-9.514,"(0.0, 0.0, 0.0, 0.0, 0.0, 0.0, 0.0, 0.0, 0.0)",0,0,0,,4.94e-06,-3.61e-06,1.7440000000000002e-05,"(0.0, 0.0, 0.0, 0.0, 0.0, 0.0, 0.0, 0.0, 0.0)","$VNYMR,+065.724,+001.817,+015.939,+00.0494,-00.0361,+00.1744,+00.327,-02.722,-09.514,+00.000066,-00.000920,+00.000086*60
"
1698962796.856926,0,1698962796,826381683,GPS1_Frame,0,0,0,,0.10791820534064657,0.08840643593565911,0.5354562849930188,0.832961301563694,"(0.0, 0.0, 0.0, 0.0, 0.0, 0.0, 0.0, 0.0, 0.0)",9.8e-05,-0.000737,-0.000674,"(0.0, 0.0, 0.0, 0.0, 0.0, 0.0, 0.0, 0.0, 0.0)",0.31,-2.734,-9.505,"(0.0, 0.0, 0.0, 0.0, 0.0, 0.0, 0.0, 0.0, 0.0)",0,0,0,,4.950000000000001e-06,-3.1600000000000007e-06,1.756e-05,"(0.0, 0.0, 0.0, 0.0, 0.0, 0.0, 0.0, 0.0, 0.0)","$VNYMR,+065.723,+001.817,+015.938,+00.0495,-00.0316,+00.1756,+00.310,-02.734,-09.505,+00.000098,-00.000737,-00.000674*63
"
1698962796.8706105,0,1698962796,849937915,GPS1_Frame,0,0,0,,0.10793017925039962,0.08840386053494469,0.5354566039960692,0.8329598184105229,"(0.0, 0.0, 0.0, 0.0, 0.0, 0.0, 0.0, 0.0, 0.0)",-3.4e-05,-0.000865,-5.5e-05,"(0.0, 0.0, 0.0, 0.0, 0.0, 0.0, 0.0, 0.0, 0.0)",0.345,-2.722,-9.5,"(0.0, 0.0, 0.0, 0.0, 0.0, 0.0, 0.0, 0.0, 0.0)",0,0,0,,4.93e-06,-3.84e-06,1.807e-05,"(0.0, 0.0, 0.0, 0.0, 0.0, 0.0, 0.0, 0.0, 0.0)","$VNYMR,+065.723,+001.816,+015.939,+00.0493,-00.0384,+00.1807,+00.345,-02.722,-09.500,-00.000034,-00.000865,-00.000055*6A
"
1698962796.9164102,0,1698962796,878180980,GPS1_Frame,0,0,0,,0.10789973389861496,0.088403397004328,0.5354494685285233,0.8329683988454936,"(0.0, 0.0, 0.0, 0.0, 0.0, 0.0, 0.0, 0.0, 0.0)",-0.005303,0.001291,-0.000125,"(0.0, 0.0, 0.0, 0.0, 0.0, 0.0, 0.0, 0.0, 0.0)",0.381,-2.539,-9.576,"(0.0, 0.0, 0.0, 0.0, 0.0, 0.0, 0.0, 0.0, 0.0)",0,0,0,,4.94e-06,-3.61e-06,1.7690000000000002e-05,"(0.0, 0.0, 0.0, 0.0, 0.0, 0.0, 0.0, 0.0, 0.0)","$VNYMR,+065.722,+001.818,+015.936,+00.0494,-00.0361,+00.1769,+00.381,-02.539,-09.576,-00.005303,+00.001291,-00.000125*62
"
1698962796.9168186,0,1698962796,902434587,GPS1_Frame,0,0,0,,0.10783530517930115,0.08848504160801812,0.5354891264639527,0.8329425789377003,"(0.0, 0.0, 0.0, 0.0, 0.0, 0.0, 0.0, 0.0, 0.0)",0.015022,0.01131,-0.001473,"(0.0, 0.0, 0.0, 0.0, 0.0, 0.0, 0.0, 0.0, 0.0)",0.804,-2.615,-9.386,"(0.0, 0.0, 0.0, 0.0, 0.0, 0.0, 0.0, 0.0, 0.0)",0,0,0,,5.04e-06,-3.7300000000000003e-06,1.795e-05,"(0.0, 0.0, 0.0, 0.0, 0.0, 0.0, 0.0, 0.0, 0.0)","$VNYMR,+065.729,+001.829,+015.935,+00.0504,-00.0373,+00.1795,+00.804,-02.615,-09.386,+00.015022,+00.011310,-00.001473*6B
"
1698962796.9571466,0,1698962796,925868988,GPS1_Frame,0,0,0,,0.10792308615316594,0.08835081218031997,0.5354796780739939,0.8329515327028495,"(0.0, 0.0, 0.0, 0.0, 0.0, 0.0, 0.0, 0.0, 0.0)",-0.006578,0.014993,-0.00189,"(0.0, 0.0, 0.0, 0.0, 0.0, 0.0, 0.0, 0.0, 0.0)",0.117,-2.969,-9.45,"(0.0, 0.0, 0.0, 0.0, 0.0, 0.0, 0.0, 0.0, 0.0)",0,0,0,,4.93e-06,-3.96e-06,1.7440000000000002e-05,"(0.0, 0.0, 0.0, 0.0, 0.0, 0.0, 0.0, 0.0, 0.0)","$VNYMR,+065.725,+001.811,+015.935,+00.0493,-00.0396,+00.1744,+00.117,-02.969,-09.450,-00.006578,+00.014993,-00.001890*6C
"
1698962796.9661968,0,1698962796,955770254,GPS1_Frame,0,0,0,,0.10790093089884571,0.0883688252337805,0.535484447856336,0.8329494258008461,"(0.0, 0.0, 0.0, 0.0, 0.0, 0.0, 0.0, 0.0, 0.0)",-0.006996,-0.01854,0.001531,"(0.0, 0.0, 0.0, 0.0, 0.0, 0.0, 0.0, 0.0, 0.0)",0.292,-2.6,-9.536,"(0.0, 0.0, 0.0, 0.0, 0.0, 0.0, 0.0, 0.0, 0.0)",0,0,0,,5.06e-06,-3.1600000000000007e-06,1.7310000000000002e-05,"(0.0, 0.0, 0.0, 0.0, 0.0, 0.0, 0.0, 0.0, 0.0)","$VNYMR,+065.726,+001.814,+015.934,+00.0506,-00.0316,+00.1731,+00.292,-02.600,-09.536,-00.006996,-00.018540,+00.001531*67
"
1698962797.0138242,0,1698962796,974673509,GPS1_Frame,0,0,0,,0.10789338472855106,0.08845930515929619,0.5354853139178104,0.8329402424189237,"(0.0, 0.0, 0.0, 0.0, 0.0, 0.0, 0.0, 0.0, 0.0)",0.002932,0.007615,0.000731,"(0.0, 0.0, 0.0, 0.0, 0.0, 0.0, 0.0, 0.0, 0.0)",0.338,-2.736,-9.506,"(0.0, 0.0, 0.0, 0.0, 0.0, 0.0, 0.0, 0.0, 0.0)",0,0,0,,4.84e-06,-3.61e-06,1.743e-05,"(0.0, 0.0, 0.0, 0.0, 0.0, 0.0, 0.0, 0.0, 0.0)","$VNYMR,+065.728,+001.823,+015.939,+00.0484,-00.0361,+00.1743,+00.338,-02.736,-09.506,+00.002932,+00.007615,+00.000731*6C
"
1698962797.014705,0,1698962796,999588251,GPS1_Frame,0,0,0,,0.10793496093196336,0.08839501582738457,0.5355023977873902,0.8329306978071149,"(0.0, 0.0, 0.0, 0.0, 0.0, 0.0, 0.0, 0.0, 0.0)",0.000555,-0.010098,-1.5e-05,"(0.0, 0.0, 0.0, 0.0, 0.0, 0.0, 0.0, 0.0, 0.0)",0.214,-2.768,-9.506,"(0.0, 0.0, 0.0, 0.0, 0.0, 0.0, 0.0, 0.0, 0.0)",0,0,0,,5.04e-06,-3.84e-06,1.719e-05,"(0.0, 0.0, 0.0, 0.0, 0.0, 0.0, 0.0, 0.0, 0.0)","$VNYMR,+065.729,+001.814,+015.939,+00.0504,-00.0384,+00.1719,+00.214,-02.768,-09.506,+00.000555,-00.010098,-00.000015*6B
"
1698962797.0588202,0,1698962797,25238990,GPS1_Frame,0,0,0,,0.10791263264401854,0.08839668437033903,0.5355319247358092,0.8329144298767596,"(0.0, 0.0, 0.0, 0.0, 0.0, 0.0, 0.0, 0.0, 0.0)",-0.000289,0.000112,0.000678,"(0.0, 0.0, 0.0, 0.0, 0.0, 0.0, 0.0, 0.0, 0.0)",0.326,-2.643,-9.496,"(0.0, 0.0, 0.0, 0.0, 0.0, 0.0, 0.0, 0.0, 0.0)",0,0,0,,5.04e-06,-3.7300000000000003e-06,1.7820000000000002e-05,"(0.0, 0.0, 0.0, 0.0, 0.0, 0.0, 0.0, 0.0, 0.0)","$VNYMR,+065.733,+001.815,+015.937,+00.0504,-00.0373,+00.1782,+00.326,-02.643,-09.496,-00.000289,+00.000112,+00.000678*6A
"
1698962797.0589266,0,1698962797,50453901,GPS1_Frame,0,0,0,,0.10793033243180496,0.08840066716755085,0.5355460092026683,0.8329026578253832,"(0.0, 0.0, 0.0, 0.0, 0.0, 0.0, 0.0, 0.0, 0.0)",0.002118,0.006493,-0.00275,"(0.0, 0.0, 0.0, 0.0, 0.0, 0.0, 0.0, 0.0, 0.0)",0.317,-2.791,-9.519,"(0.0, 0.0, 0.0, 0.0, 0.0, 0.0, 0.0, 0.0, 0.0)",0,0,0,,5.04e-06,-3.7300000000000003e-06,1.795e-05,"(0.0, 0.0, 0.0, 0.0, 0.0, 0.0, 0.0, 0.0, 0.0)","$VNYMR,+065.735,+001.814,+015.939,+00.0504,-00.0373,+00.1795,+00.317,-02.791,-09.519,+00.002118,+00.006493,-00.002750*65
"
1698962797.1003702,0,1698962797,75030565,GPS1_Frame,0,0,0,,0.1079393160685159,0.08841979980479087,0.5355059424817126,0.8329252239042318,"(0.0, 0.0, 0.0, 0.0, 0.0, 0.0, 0.0, 0.0, 0.0)",0.00069,-0.007979,-0.004234,"(0.0, 0.0, 0.0, 0.0, 0.0, 0.0, 0.0, 0.0, 0.0)",0.422,-2.893,-9.449,"(0.0, 0.0, 0.0, 0.0, 0.0, 0.0, 0.0, 0.0, 0.0)",0,0,0,,5.1600000000000006e-06,-3.2800000000000004e-06,1.7440000000000002e-05,"(0.0, 0.0, 0.0, 0.0, 0.0, 0.0, 0.0, 0.0, 0.0)","$VNYMR,+065.730,+001.816,+015.941,+00.0516,-00.0328,+00.1744,+00.422,-02.893,-09.449,+00.000690,-00.007979,-00.004234*6E
"
1698962797.1213548,0,1698962797,101105928,GPS1_Frame,0,0,0,,0.1079787700075771,0.08832949424380246,0.5354529690262487,0.8329637468913397,"(0.0, 0.0, 0.0, 0.0, 0.0, 0.0, 0.0, 0.0, 0.0)",-0.002892,-0.008018,-0.000738,"(0.0, 0.0, 0.0, 0.0, 0.0, 0.0, 0.0, 0.0, 0.0)",-0.014,-2.628,-9.616,"(0.0, 0.0, 0.0, 0.0, 0.0, 0.0, 0.0, 0.0, 0.0)",0,0,0,,4.84e-06,-3.38e-06,1.756e-05,"(0.0, 0.0, 0.0, 0.0, 0.0, 0.0, 0.0, 0.0, 0.0)","$VNYMR,+065.721,+001.806,+015.939,+00.0484,-00.0338,+00.1756,-00.014,-02.628,-09.616,-00.002892,-00.008018,-00.000738*6D
"
1698962797.168607,0,1698962797,127639532,GPS1_Frame,0,0,0,,0.1079277631236201,0.08845346420778841,0.5355008079210863,0.8329264477327138,"(0.0, 0.0, 0.0, 0.0, 0.0, 0.0, 0.0, 0.0, 0.0)",0.00286,0.004397,0.001833,"(0.0, 0.0, 0.0, 0.0, 0.0, 0.0, 0.0, 0.0, 0.0)",0.488,-2.576,-9.512,"(0.0, 0.0, 0.0, 0.0, 0.0, 0.0, 0.0, 0.0, 0.0)",0,0,0,,5.06e-06,-3.1600000000000007e-06,1.7690000000000002e-05,"(0.0, 0.0, 0.0, 0.0, 0.0, 0.0, 0.0, 0.0, 0.0)","$VNYMR,+065.730,+001.820,+015.942,+00.0506,-00.0316,+00.1769,+00.488,-02.576,-09.512,+00.002860,+00.004397,+00.001833*60
"
1698962797.1686203,0,1698962797,150097608,GPS1_Frame,0,0,0,,0.10793050426910876,0.0884170103866234,0.5355212512920937,0.8329168193385568,"(0.0, 0.0, 0.0, 0.0, 0.0, 0.0, 0.0, 0.0, 0.0)",-0.000961,0.00302,0.002816,"(0.0, 0.0, 0.0, 0.0, 0.0, 0.0, 0.0, 0.0, 0.0)",0.296,-2.734,-9.479,"(0.0, 0.0, 0.0, 0.0, 0.0, 0.0, 0.0, 0.0, 0.0)",0,0,0,,4.83e-06,-3.84e-06,1.7820000000000002e-05,"(0.0, 0.0, 0.0, 0.0, 0.0, 0.0, 0.0, 0.0, 0.0)","$VNYMR,+065.732,+001.816,+015.940,+00.0483,-00.0384,+00.1782,+00.296,-02.734,-09.479,-00.000961,+00.003020,+00.002816*6E
"
1698962797.2132592,0,1698962797,184257745,GPS1_Frame,0,0,0,,0.10793503812138043,0.08839341950515948,0.5355470995387518,0.8329021161634488,"(0.0, 0.0, 0.0, 0.0, 0.0, 0.0, 0.0, 0.0, 0.0)",-0.001439,-0.008374,0.002822,"(0.0, 0.0, 0.0, 0.0, 0.0, 0.0, 0.0, 0.0, 0.0)",0.219,-2.674,-9.545,"(0.0, 0.0, 0.0, 0.0, 0.0, 0.0, 0.0, 0.0, 0.0)",0,0,0,,4.94e-06,-3.84e-06,1.7690000000000002e-05,"(0.0, 0.0, 0.0, 0.0, 0.0, 0.0, 0.0, 0.0, 0.0)","$VNYMR,+065.735,+001.813,+015.939,+00.0494,-00.0384,+00.1769,+00.219,-02.674,-09.545,-00.001439,-00.008374,+00.002822*64
"
1698962797.2133467,0,1698962797,199803590,GPS1_Frame,0,0,0,,0.10791467203513823,0.08842429359413606,0.5355572747902267,0.8328949353196908,"(0.0, 0.0, 0.0, 0.0, 0.0, 0.0, 0.0, 0.0, 0.0)",0.000251,0.007327,0.000808,"(0.0, 0.0, 0.0, 0.0, 0.0, 0.0, 0.0, 0.0, 0.0)",0.286,-2.767,-9.504,"(0.0, 0.0, 0.0, 0.0, 0.0, 0.0, 0.0, 0.0, 0.0)",0,0,0,,4.93e-06,-4.18e-06,1.77e-05,"(0.0, 0.0, 0.0, 0.0, 0.0, 0.0, 0.0, 0.0, 0.0)","$VNYMR,+065.737,+001.817,+015.939,+00.0493,-00.0418,+00.1770,+00.286,-02.767,-09.504,+00.000251,+00.007327,+00.000808*65
"
1698962797.260059,0,1698962797,225593805,GPS1_Frame,0,0,0,,0.10791551985171435,0.08842175482108228,0.535594706603121,0.8328710248941377,"(0.0, 0.0, 0.0, 0.0, 0.0, 0.0, 0.0, 0.0, 0.0)",-0.001387,-0.001183,0.002003,"(0.0, 0.0, 0.0, 0.0, 0.0, 0.0, 0.0, 0.0, 0.0)",0.297,-2.837,-9.447,"(0.0, 0.0, 0.0, 0.0, 0.0, 0.0, 0.0, 0.0, 0.0)",0,0,0,,4.96e-06,-2.93e-06,1.755e-05,"(0.0, 0.0, 0.0, 0.0, 0.0, 0.0, 0.0, 0.0, 0.0)","$VNYMR,+065.742,+001.816,+015.939,+00.0496,-00.0293,+00.1755,+00.297,-02.837,-09.447,-00.001387,-00.001183,+00.002003*6D
"
1698962797.2604597,0,1698962797,249702453,GPS1_Frame,0,0,0,,0.10791295783025585,0.08840983350119927,0.5355965685294272,0.8328714250423761,"(0.0, 0.0, 0.0, 0.0, 0.0, 0.0, 0.0, 0.0, 0.0)",-0.001296,-0.001584,0.001744,"(0.0, 0.0, 0.0, 0.0, 0.0, 0.0, 0.0, 0.0, 0.0)",0.355,-2.711,-9.522,"(0.0, 0.0, 0.0, 0.0, 0.0, 0.0, 0.0, 0.0, 0.0)",0,0,0,,4.94e-06,-3.84e-06,1.757e-05,"(0.0, 0.0, 0.0, 0.0, 0.0, 0.0, 0.0, 0.0, 0.0)","$VNYMR,+065.742,+001.815,+015.938,+00.0494,-00.0384,+00.1757,+00.355,-02.711,-09.522,-00.001296,-00.001584,+00.001744*6B
"
1698962797.304872,0,1698962797,276636362,GPS1_Frame,0,0,0,,0.10791851303553693,0.08840004765664534,0.5356350893641109,0.8328469710339362,"(0.0, 0.0, 0.0, 0.0, 0.0, 0.0, 0.0, 0.0, 0.0)",0.000343,0.00284,0.003906,"(0.0, 0.0, 0.0, 0.0, 0.0, 0.0, 0.0, 0.0, 0.0)",0.302,-2.613,-9.542,"(0.0, 0.0, 0.0, 0.0, 0.0, 0.0, 0.0, 0.0, 0.0)",0,0,0,,5.070000000000001e-06,-2.82e-06,1.705e-05,"(0.0, 0.0, 0.0, 0.0, 0.0, 0.0, 0.0, 0.0, 0.0)","$VNYMR,+065.747,+001.813,+015.938,+00.0507,-00.0282,+00.1705,+00.302,-02.613,-09.542,+00.000343,+00.002840,+00.003906*60
"
1698962797.3149762,0,1698962797,305003404,GPS1_Frame,0,0,0,,0.10790832855427601,0.08841548368926551,0.5356401768410614,0.8328433801299571,"(0.0, 0.0, 0.0, 0.0, 0.0, 0.0, 0.0, 0.0, 0.0)",0.000811,-0.001818,-0.00079,"(0.0, 0.0, 0.0, 0.0, 0.0, 0.0, 0.0, 0.0, 0.0)",0.394,-2.733,-9.501,"(0.0, 0.0, 0.0, 0.0, 0.0, 0.0, 0.0, 0.0, 0.0)",0,0,0,,5.04e-06,-3.7300000000000003e-06,1.757e-05,"(0.0, 0.0, 0.0, 0.0, 0.0, 0.0, 0.0, 0.0, 0.0)","$VNYMR,+065.748,+001.815,+015.938,+00.0504,-00.0373,+00.1757,+00.394,-02.733,-09.501,+00.000811,-00.001818,-00.000790*69
"
1698962797.3600235,0,1698962797,326023101,GPS1_Frame,0,0,0,,0.10791116721501429,0.08839697044960342,0.5355911620494748,0.8328764990922235,"(0.0, 0.0, 0.0, 0.0, 0.0, 0.0, 0.0, 0.0, 0.0)",0.000173,-0.003554,-0.004337,"(0.0, 0.0, 0.0, 0.0, 0.0, 0.0, 0.0, 0.0, 0.0)",0.308,-2.721,-9.493,"(0.0, 0.0, 0.0, 0.0, 0.0, 0.0, 0.0, 0.0, 0.0)",0,0,0,,5.050000000000001e-06,-3.5000000000000004e-06,1.7310000000000002e-05,"(0.0, 0.0, 0.0, 0.0, 0.0, 0.0, 0.0, 0.0, 0.0)","$VNYMR,+065.741,+001.814,+015.937,+00.0505,-00.0350,+00.1731,+00.308,-02.721,-09.493,+00.000173,-00.003554,-00.004337*65
"
1698962797.4013617,0,1698962797,350194454,GPS1_Frame,0,0,0,,0.10791895861116042,0.08838595598612534,0.5355631790489718,0.8328946526444146,"(0.0, 0.0, 0.0, 0.0, 0.0, 0.0, 0.0, 0.0, 0.0)",0.001693,0.002222,-0.003615,"(0.0, 0.0, 0.0, 0.0, 0.0, 0.0, 0.0, 0.0, 0.0)",0.282,-2.773,-9.489,"(0.0, 0.0, 0.0, 0.0, 0.0, 0.0, 0.0, 0.0, 0.0)",0,0,0,,4.93e-06,-3.84e-06,1.7820000000000002e-05,"(0.0, 0.0, 0.0, 0.0, 0.0, 0.0, 0.0, 0.0, 0.0)","$VNYMR,+065.737,+001.813,+015.937,+00.0493,-00.0384,+00.1782,+00.282,-02.773,-09.489,+00.001693,+00.002222,-00.003615*68
"
1698962797.4014568,0,1698962797,376082420,GPS1_Frame,0,0,0,,0.10793503812138043,0.08839341950515948,0.5355470995387518,0.8329021161634488,"(0.0, 0.0, 0.0, 0.0, 0.0, 0.0, 0.0, 0.0, 0.0)",-0.000363,-0.001653,-0.000328,"(0.0, 0.0, 0.0, 0.0, 0.0, 0.0, 0.0, 0.0, 0.0)",0.289,-2.738,-9.499,"(0.0, 0.0, 0.0, 0.0, 0.0, 0.0, 0.0, 0.0, 0.0)",0,0,0,,4.84e-06,-3.61e-06,1.7310000000000002e-05,"(0.0, 0.0, 0.0, 0.0, 0.0, 0.0, 0.0, 0.0, 0.0)","$VNYMR,+065.735,+001.813,+015.939,+00.0484,-00.0361,+00.1731,+00.289,-02.738,-09.499,-00.000363,-00.001653,-00.000328*66
"
1698962797.4493346,0,1698962797,426694154,GPS1_Frame,0,0,0,,0.10791741596877905,0.08838783951381639,0.535577715721411,0.8328853051767312,"(0.0, 0.0, 0.0, 0.0, 0.0, 0.0, 0.0, 0.0, 0.0)",0.000991,0.002163,0.001288,"(0.0, 0.0, 0.0, 0.0, 0.0, 0.0, 0.0, 0.0, 0.0)",0.291,-2.573,-9.507,"(0.0, 0.0, 0.0, 0.0, 0.0, 0.0, 0.0, 0.0, 0.0)",0,0,0,,5.15e-06,-3.7300000000000003e-06,1.757e-05,"(0.0, 0.0, 0.0, 0.0, 0.0, 0.0, 0.0, 0.0, 0.0)","$VNYMR,+065.739,+001.813,+015.937,+00.0515,-00.0373,+00.1757,+00.291,-02.573,-09.507,+00.000991,+00.002163,+00.001288*60
"
1698962797.449381,0,1698962797,402020692,GPS1_Frame,0,0,0,,0.10792074974214518,0.08839881903252142,0.535568585805345,0.8328895787961401,"(0.0, 0.0, 0.0, 0.0, 0.0, 0.0, 0.0, 0.0, 0.0)",-0.001419,0.000124,0.000907,"(0.0, 0.0, 0.0, 0.0, 0.0, 0.0, 0.0, 0.0, 0.0)",0.324,-2.666,-9.525,"(0.0, 0.0, 0.0, 0.0, 0.0, 0.0, 0.0, 0.0, 0.0)",0,0,0,,4.84e-06,-3.5000000000000004e-06,1.743e-05,"(0.0, 0.0, 0.0, 0.0, 0.0, 0.0, 0.0, 0.0, 0.0)","$VNYMR,+065.738,+001.814,+015.938,+00.0484,-00.0350,+00.1743,+00.324,-02.666,-09.525,-00.001419,+00.000124,+00.000907*6A
"
1698962797.4931905,0,1698962797,450285673,GPS1_Frame,0,0,0,,0.10790021194574106,0.0884133485268764,0.535603517939153,0.8328682342576964,"(0.0, 0.0, 0.0, 0.0, 0.0, 0.0, 0.0, 0.0, 0.0)",0.000317,0.000871,0.00068,"(0.0, 0.0, 0.0, 0.0, 0.0, 0.0, 0.0, 0.0, 0.0)",0.342,-2.735,-9.518,"(0.0, 0.0, 0.0, 0.0, 0.0, 0.0, 0.0, 0.0, 0.0)",0,0,0,,4.94e-06,-3.7300000000000003e-06,1.7690000000000002e-05,"(0.0, 0.0, 0.0, 0.0, 0.0, 0.0, 0.0, 0.0, 0.0)","$VNYMR,+065.743,+001.816,+015.937,+00.0494,-00.0373,+00.1769,+00.342,-02.735,-09.518,+00.000317,+00.000871,+00.000680*6D
"
1698962797.4933004,0,1698962797,476172685,GPS1_Frame,0,0,0,,0.10790021194574106,0.0884133485268764,0.535603517939153,0.8328682342576964,"(0.0, 0.0, 0.0, 0.0, 0.0, 0.0, 0.0, 0.0, 0.0)",-0.001155,6.4e-05,0.000515,"(0.0, 0.0, 0.0, 0.0, 0.0, 0.0, 0.0, 0.0, 0.0)",0.313,-2.741,-9.504,"(0.0, 0.0, 0.0, 0.0, 0.0, 0.0, 0.0, 0.0, 0.0)",0,0,0,,5.1600000000000006e-06,-3.39e-06,1.7690000000000002e-05,"(0.0, 0.0, 0.0, 0.0, 0.0, 0.0, 0.0, 0.0, 0.0)","$VNYMR,+065.743,+001.816,+015.937,+00.0516,-00.0339,+00.1769,+00.313,-02.741,-09.504,-00.001155,+00.000064,+00.000515*62
"
1698962797.5388954,0,1698962797,500668048,GPS1_Frame,0,0,0,,0.10790081345336568,0.08839606303440029,0.5356210060190791,0.8328587445703082,"(0.0, 0.0, 0.0, 0.0, 0.0, 0.0, 0.0, 0.0, 0.0)",-0.000282,0.000184,0.001739,"(0.0, 0.0, 0.0, 0.0, 0.0, 0.0, 0.0, 0.0, 0.0)",0.262,-2.668,-9.527,"(0.0, 0.0, 0.0, 0.0, 0.0, 0.0, 0.0, 0.0, 0.0)",0,0,0,,4.85e-06,-3.1500000000000003e-06,1.73e-05,"(0.0, 0.0, 0.0, 0.0, 0.0, 0.0, 0.0, 0.0, 0.0)","$VNYMR,+065.745,+001.814,+015.936,+00.0485,-00.0315,+00.1730,+00.262,-02.668,-09.527,-00.000282,+00.000184,+00.001739*68
"
1698962797.5409698,0,1698962797,524941921,GPS1_Frame,0,0,0,,0.10788283633818481,0.08842251219569759,0.5356540753563509,0.832836997566008,"(0.0, 0.0, 0.0, 0.0, 0.0, 0.0, 0.0, 0.0, 0.0)",0.000312,0.002685,0.004372,"(0.0, 0.0, 0.0, 0.0, 0.0, 0.0, 0.0, 0.0, 0.0)",0.353,-2.788,-9.509,"(0.0, 0.0, 0.0, 0.0, 0.0, 0.0, 0.0, 0.0, 0.0)",0,0,0,,5.1700000000000005e-06,-3.05e-06,1.7310000000000002e-05,"(0.0, 0.0, 0.0, 0.0, 0.0, 0.0, 0.0, 0.0, 0.0)","$VNYMR,+065.750,+001.817,+015.936,+00.0517,-00.0305,+00.1731,+00.353,-02.788,-09.509,+00.000312,+00.002685,+00.004372*61
"
1698962797.5892544,0,1698962797,550450801,GPS1_Frame,0,0,0,,0.10787735795354945,0.08843070065457191,0.5356602529759363,0.832832864507915,"(0.0, 0.0, 0.0, 0.0, 0.0, 0.0, 0.0, 0.0, 0.0)",-0.000793,0.001174,0.000269,"(0.0, 0.0, 0.0, 0.0, 0.0, 0.0, 0.0, 0.0, 0.0)",0.351,-2.764,-9.492,"(0.0, 0.0, 0.0, 0.0, 0.0, 0.0, 0.0, 0.0, 0.0)",0,0,0,,4.7300000000000005e-06,-3.49e-06,1.743e-05,"(0.0, 0.0, 0.0, 0.0, 0.0, 0.0, 0.0, 0.0, 0.0)","$VNYMR,+065.751,+001.818,+015.936,+00.0473,-00.0349,+00.1743,+00.351,-02.764,-09.492,-00.000793,+00.001174,+00.000269*6C
"
1698962797.6338062,0,1698962797,575959444,GPS1_Frame,0,0,0,,0.10787402526139092,0.08841972049908263,0.5356693826505254,0.8328285899220644,"(0.0, 0.0, 0.0, 0.0, 0.0, 0.0, 0.0, 0.0, 0.0)",0.000143,-0.000155,-0.001315,"(0.0, 0.0, 0.0, 0.0, 0.0, 0.0, 0.0, 0.0, 0.0)",0.319,-2.631,-9.549,"(0.0, 0.0, 0.0, 0.0, 0.0, 0.0, 0.0, 0.0, 0.0)",0,0,0,,4.950000000000001e-06,-3.38e-06,1.781e-05,"(0.0, 0.0, 0.0, 0.0, 0.0, 0.0, 0.0, 0.0, 0.0)","$VNYMR,+065.752,+001.817,+015.935,+00.0495,-00.0338,+00.1781,+00.319,-02.631,-09.549,+00.000143,-00.000155,-00.001315*6D
"
1698962797.6338735,0,1698962797,601089477,GPS1_Frame,0,0,0,,0.10787812965288492,0.08842975924366242,0.5356529851177377,0.8328375389937464,"(0.0, 0.0, 0.0, 0.0, 0.0, 0.0, 0.0, 0.0, 0.0)",0.001724,-0.001718,-0.002191,"(0.0, 0.0, 0.0, 0.0, 0.0, 0.0, 0.0, 0.0, 0.0)",0.357,-2.753,-9.496,"(0.0, 0.0, 0.0, 0.0, 0.0, 0.0, 0.0, 0.0, 0.0)",0,0,0,,4.94e-06,-3.61e-06,1.756e-05,"(0.0, 0.0, 0.0, 0.0, 0.0, 0.0, 0.0, 0.0, 0.0)","$VNYMR,+065.750,+001.818,+015.936,+00.0494,-00.0361,+00.1756,+00.357,-02.753,-09.496,+00.001724,-00.001718,-00.002191*6D
"
1698962797.6783476,0,1698962797,627166509,GPS1_Frame,0,0,0,,0.10789396246913038,0.08842247897791722,0.5356169638658071,0.832859427570634,"(0.0, 0.0, 0.0, 0.0, 0.0, 0.0, 0.0, 0.0, 0.0)",9.3e-05,-0.001424,-0.002415,"(0.0, 0.0, 0.0, 0.0, 0.0, 0.0, 0.0, 0.0, 0.0)",0.259,-2.747,-9.515,"(0.0, 0.0, 0.0, 0.0, 0.0, 0.0, 0.0, 0.0, 0.0)",0,0,0,,4.7300000000000005e-06,-3.49e-06,1.794e-05,"(0.0, 0.0, 0.0, 0.0, 0.0, 0.0, 0.0, 0.0, 0.0)","$VNYMR,+065.745,+001.817,+015.937,+00.0473,-00.0349,+00.1794,+00.259,-02.747,-09.515,+00.000093,-00.001424,-00.002415*65
"
1698962797.6788769,0,1698962797,649657249,GPS1_Frame,0,0,0,,0.10789294379517109,0.08840867450107329,0.5356042894707759,0.8328691758329639,"(0.0, 0.0, 0.0, 0.0, 0.0, 0.0, 0.0, 0.0, 0.0)",8e-05,-0.000304,9.9e-05,"(0.0, 0.0, 0.0, 0.0, 0.0, 0.0, 0.0, 0.0, 0.0)",0.261,-2.651,-9.541,"(0.0, 0.0, 0.0, 0.0, 0.0, 0.0, 0.0, 0.0, 0.0)",0,0,0,,5.1600000000000006e-06,-3.5000000000000004e-06,1.7440000000000002e-05,"(0.0, 0.0, 0.0, 0.0, 0.0, 0.0, 0.0, 0.0, 0.0)","$VNYMR,+065.743,+001.816,+015.936,+00.0516,-00.0350,+00.1744,+00.261,-02.651,-09.541,+00.000080,-00.000304,+00.000099*6A
"
1698962797.7208831,0,1698962797,677317380,GPS1_Frame,0,0,0,,0.10788925610477171,0.0884297262217284,0.5356158735403266,0.8328599689918721,"(0.0, 0.0, 0.0, 0.0, 0.0, 0.0, 0.0, 0.0, 0.0)",0.000998,0.003166,0.001117,"(0.0, 0.0, 0.0, 0.0, 0.0, 0.0, 0.0, 0.0, 0.0)",0.332,-2.694,-9.543,"(0.0, 0.0, 0.0, 0.0, 0.0, 0.0, 0.0, 0.0, 0.0)",0,0,0,,5.15e-06,-3.85e-06,1.7440000000000002e-05,"(0.0, 0.0, 0.0, 0.0, 0.0, 0.0, 0.0, 0.0, 0.0)","$VNYMR,+065.745,+001.818,+015.937,+00.0515,-00.0385,+00.1744,+00.332,-02.694,-09.543,+00.000998,+00.003166,+00.001117*61
"
1698962797.7210212,0,1698962797,702454566,GPS1_Frame,0,0,0,,0.10788377796990521,0.08843791492574025,0.5356220512327192,0.832855836197227,"(0.0, 0.0, 0.0, 0.0, 0.0, 0.0, 0.0, 0.0, 0.0)",-0.000858,-0.00069,0.00114,"(0.0, 0.0, 0.0, 0.0, 0.0, 0.0, 0.0, 0.0, 0.0)",0.339,-2.702,-9.496,"(0.0, 0.0, 0.0, 0.0, 0.0, 0.0, 0.0, 0.0, 0.0)",0,0,0,,5.25e-06,-4.080000000000001e-06,1.758e-05,"(0.0, 0.0, 0.0, 0.0, 0.0, 0.0, 0.0, 0.0, 0.0)","$VNYMR,+065.746,+001.819,+015.937,+00.0525,-00.0408,+00.1758,+00.339,-02.702,-09.496,-00.000858,-00.000690,+00.001140*61
"
1698962797.7695189,0,1698962797,724913835,GPS1_Frame,0,0,0,,0.10787865475925662,0.08841407210712679,0.5356257751132646,0.8328566363637162,"(0.0, 0.0, 0.0, 0.0, 0.0, 0.0, 0.0, 0.0, 0.0)",-0.00215,-0.001858,0.000956,"(0.0, 0.0, 0.0, 0.0, 0.0, 0.0, 0.0, 0.0, 0.0)",0.299,-2.635,-9.533,"(0.0, 0.0, 0.0, 0.0, 0.0, 0.0, 0.0, 0.0, 0.0)",0,0,0,,4.950000000000001e-06,-3.39e-06,1.6930000000000002e-05,"(0.0, 0.0, 0.0, 0.0, 0.0, 0.0, 0.0, 0.0, 0.0)","$VNYMR,+065.746,+001.817,+015.935,+00.0495,-00.0339,+00.1693,+00.299,-02.635,-09.533,-00.002150,-00.001858,+00.000956*62
"
1698962797.7695668,0,1698962797,752270936,GPS1_Frame,0,0,0,,0.1078706151882493,0.08841033923916014,0.535633814684272,0.8328529034957495,"(0.0, 0.0, 0.0, 0.0, 0.0, 0.0, 0.0, 0.0, 0.0)",0.001063,0.002172,0.000872,"(0.0, 0.0, 0.0, 0.0, 0.0, 0.0, 0.0, 0.0, 0.0)",0.292,-2.741,-9.514,"(0.0, 0.0, 0.0, 0.0, 0.0, 0.0, 0.0, 0.0, 0.0)",0,0,0,,4.7300000000000005e-06,-3.72e-06,1.743e-05,"(0.0, 0.0, 0.0, 0.0, 0.0, 0.0, 0.0, 0.0, 0.0)","$VNYMR,+065.747,+001.817,+015.934,+00.0473,-00.0372,+00.1743,+00.292,-02.741,-09.514,+00.001063,+00.002172,+00.000872*62
"
1698962797.8138258,0,1698962797,776850461,GPS1_Frame,0,0,0,,0.1078708617701825,0.0884250847861761,0.5356537567925694,0.8328384803763109,"(0.0, 0.0, 0.0, 0.0, 0.0, 0.0, 0.0, 0.0, 0.0)",-0.000427,0.000741,0.00113,"(0.0, 0.0, 0.0, 0.0, 0.0, 0.0, 0.0, 0.0, 0.0)",0.307,-2.815,-9.483,"(0.0, 0.0, 0.0, 0.0, 0.0, 0.0, 0.0, 0.0, 0.0)",0,0,0,,4.85e-06,-3.04e-06,1.743e-05,"(0.0, 0.0, 0.0, 0.0, 0.0, 0.0, 0.0, 0.0, 0.0)","$VNYMR,+065.750,+001.818,+015.935,+00.0485,-00.0304,+00.1743,+00.307,-02.815,-09.483,-00.000427,+00.000741,+00.001130*67
"
1698962797.8139098,0,1698962797,800676345,GPS1_Frame,0,0,0,,0.10787658624599869,0.08843164205874703,0.535667520793342,0.83282818995866,"(0.0, 0.0, 0.0, 0.0, 0.0, 0.0, 0.0, 0.0, 0.0)",0.000217,0.00179,0.000123,"(0.0, 0.0, 0.0, 0.0, 0.0, 0.0, 0.0, 0.0, 0.0)",0.338,-2.734,-9.524,"(0.0, 0.0, 0.0, 0.0, 0.0, 0.0, 0.0, 0.0, 0.0)",0,0,0,,4.84e-06,-3.27e-06,1.743e-05,"(0.0, 0.0, 0.0, 0.0, 0.0, 0.0, 0.0, 0.0, 0.0)","$VNYMR,+065.752,+001.818,+015.936,+00.0484,-00.0327,+00.1743,+00.338,-02.734,-09.524,+00.000217,+00.001790,+00.000123*67
"
1698962797.858955,0,1698962797,833141803,GPS1_Frame,0,0,0,,0.10787033585976946,0.08844077172382533,0.535680966045265,0.8328193820722513,"(0.0, 0.0, 0.0, 0.0, 0.0, 0.0, 0.0, 0.0, 0.0)",0.000538,7.7e-05,0.000652,"(0.0, 0.0, 0.0, 0.0, 0.0, 0.0, 0.0, 0.0, 0.0)",0.356,-2.705,-9.518,"(0.0, 0.0, 0.0, 0.0, 0.0, 0.0, 0.0, 0.0, 0.0)",0,0,0,,4.84e-06,-3.38e-06,1.73e-05,"(0.0, 0.0, 0.0, 0.0, 0.0, 0.0, 0.0, 0.0, 0.0)","$VNYMR,+065.754,+001.819,+015.936,+00.0484,-00.0338,+00.1730,+00.356,-02.705,-09.518,+00.000538,+00.000077,+00.000652*6B
"
1698962797.863696,0,1698962797,852989912,GPS1_Frame,0,0,0,,0.10787342295936965,0.08843700628489293,0.5356518948383322,0.8328380803580605,"(0.0, 0.0, 0.0, 0.0, 0.0, 0.0, 0.0, 0.0, 0.0)",-0.000846,-0.000826,-0.002483,"(0.0, 0.0, 0.0, 0.0, 0.0, 0.0, 0.0, 0.0, 0.0)",0.35,-2.713,-9.533,"(0.0, 0.0, 0.0, 0.0, 0.0, 0.0, 0.0, 0.0, 0.0)",0,0,0,,4.7300000000000005e-06,-3.49e-06,1.705e-05,"(0.0, 0.0, 0.0, 0.0, 0.0, 0.0, 0.0, 0.0, 0.0)","$VNYMR,+065.750,+001.819,+015.936,+00.0473,-00.0349,+00.1705,+00.350,-02.713,-09.533,-00.000846,-00.000826,-00.002483*6D
"
1698962797.9053621,0,1698962797,875992059,GPS1_Frame,0,0,0,,0.10787728164903124,0.08843229933469354,0.5356155549118454,0.8328614517882736,"(0.0, 0.0, 0.0, 0.0, 0.0, 0.0, 0.0, 0.0, 0.0)",0.00176,-0.000636,-0.001387,"(0.0, 0.0, 0.0, 0.0, 0.0, 0.0, 0.0, 0.0, 0.0)",0.284,-2.683,-9.546,"(0.0, 0.0, 0.0, 0.0, 0.0, 0.0, 0.0, 0.0, 0.0)",0,0,0,,4.950000000000001e-06,-3.04e-06,1.743e-05,"(0.0, 0.0, 0.0, 0.0, 0.0, 0.0, 0.0, 0.0, 0.0)","$VNYMR,+065.745,+001.819,+015.936,+00.0495,-00.0304,+00.1743,+00.284,-02.683,-09.546,+00.001760,-00.000636,-00.001387*6B
"
1698962797.950417,0,1698962797,901350498,GPS1_Frame,0,0,0,,0.10787703474278622,0.08841755376387625,0.5355956123927815,0.8328758740335305,"(0.0, 0.0, 0.0, 0.0, 0.0, 0.0, 0.0, 0.0, 0.0)",-0.000116,-0.000654,-0.0008,"(0.0, 0.0, 0.0, 0.0, 0.0, 0.0, 0.0, 0.0, 0.0)",0.286,-2.722,-9.518,"(0.0, 0.0, 0.0, 0.0, 0.0, 0.0, 0.0, 0.0, 0.0)",0,0,0,,4.84e-06,-3.38e-06,1.794e-05,"(0.0, 0.0, 0.0, 0.0, 0.0, 0.0, 0.0, 0.0, 0.0)","$VNYMR,+065.742,+001.818,+015.935,+00.0484,-00.0338,+00.1794,+00.286,-02.722,-09.518,-00.000116,-00.000654,-00.000800*69
"
1698962797.9515145,0,1698962797,925461053,GPS1_Frame,0,0,0,,0.10787882506738901,0.08843041650747174,0.5356010186557205,0.8328707999163792,"(0.0, 0.0, 0.0, 0.0, 0.0, 0.0, 0.0, 0.0, 0.0)",-0.001095,-0.000265,0.000597,"(0.0, 0.0, 0.0, 0.0, 0.0, 0.0, 0.0, 0.0, 0.0)",0.266,-2.756,-9.495,"(0.0, 0.0, 0.0, 0.0, 0.0, 0.0, 0.0, 0.0, 0.0)",0,0,0,,4.85e-06,-3.04e-06,1.743e-05,"(0.0, 0.0, 0.0, 0.0, 0.0, 0.0, 0.0, 0.0, 0.0)","$VNYMR,+065.743,+001.819,+015.936,+00.0485,-00.0304,+00.1743,+00.266,-02.756,-09.495,-00.001095,-00.000265,+00.000597*6F
"
1698962797.9939516,0,1698962797,953865528,GPS1_Frame,0,0,0,,0.10788746598221133,0.08841686334239103,0.5356104673788881,0.8328650432061604,"(0.0, 0.0, 0.0, 0.0, 0.0, 0.0, 0.0, 0.0, 0.0)",-0.001727,-1.9e-05,0.002563,"(0.0, 0.0, 0.0, 0.0, 0.0, 0.0, 0.0, 0.0, 0.0)",0.285,-2.673,-9.511,"(0.0, 0.0, 0.0, 0.0, 0.0, 0.0, 0.0, 0.0, 0.0)",0,0,0,,5.050000000000001e-06,-3.39e-06,1.7440000000000002e-05,"(0.0, 0.0, 0.0, 0.0, 0.0, 0.0, 0.0, 0.0, 0.0)","$VNYMR,+065.744,+001.817,+015.936,+00.0505,-00.0339,+00.1744,+00.285,-02.673,-09.511,-00.001727,-00.000019,+00.002563*6E
"
1698962797.9940572,0,1698962797,974989652,GPS1_Frame,0,0,0,,0.10787138670989815,0.08840939788709314,0.5356265466512011,0.8328575777508624,"(0.0, 0.0, 0.0, 0.0, 0.0, 0.0, 0.0, 0.0, 0.0)",0.00106,-0.000319,0.001462,"(0.0, 0.0, 0.0, 0.0, 0.0, 0.0, 0.0, 0.0, 0.0)",0.31,-2.658,-9.535,"(0.0, 0.0, 0.0, 0.0, 0.0, 0.0, 0.0, 0.0, 0.0)",0,0,0,,5.15e-06,-3.7300000000000003e-06,1.694e-05,"(0.0, 0.0, 0.0, 0.0, 0.0, 0.0, 0.0, 0.0, 0.0)","$VNYMR,+065.746,+001.817,+015.934,+00.0515,-00.0373,+00.1694,+00.310,-02.658,-09.535,+00.001060,-00.000319,+00.001462*6D
"
1698962798.0392616,0,1698962798,1910448,GPS1_Frame,0,0,0,,0.10785316252820673,0.08842110054144603,0.5356396740326699,0.8328502529950261,"(0.0, 0.0, 0.0, 0.0, 0.0, 0.0, 0.0, 0.0, 0.0)",0.001368,0.001407,0.000663,"(0.0, 0.0, 0.0, 0.0, 0.0, 0.0, 0.0, 0.0, 0.0)",0.354,-2.707,-9.531,"(0.0, 0.0, 0.0, 0.0, 0.0, 0.0, 0.0, 0.0, 0.0)",0,0,0,,4.83e-06,-3.7300000000000003e-06,1.794e-05,"(0.0, 0.0, 0.0, 0.0, 0.0, 0.0, 0.0, 0.0, 0.0)","$VNYMR,+065.748,+001.819,+015.933,+00.0483,-00.0373,+00.1794,+00.354,-02.707,-09.531,+00.001368,+00.001407,+00.000663*6C
"
1698962798.039328,0,1698962798,26823759,GPS1_Frame,0,0,0,,0.10784536914144979,0.08843211225405452,0.5356676555434902,0.832832096332491,"(0.0, 0.0, 0.0, 0.0, 0.0, 0.0, 0.0, 0.0, 0.0)",0.000287,-0.000663,0.001251,"(0.0, 0.0, 0.0, 0.0, 0.0, 0.0, 0.0, 0.0, 0.0)",0.328,-2.75,-9.49,"(0.0, 0.0, 0.0, 0.0, 0.0, 0.0, 0.0, 0.0, 0.0)",0,0,0,,4.94e-06,-3.84e-06,1.7310000000000002e-05,"(0.0, 0.0, 0.0, 0.0, 0.0, 0.0, 0.0, 0.0, 0.0)","$VNYMR,+065.752,+001.820,+015.933,+00.0494,-00.0384,+00.1731,+00.328,-02.750,-09.490,+00.000287,-00.000663,+00.001251*6D
"
1698962798.0884998,0,1698962798,50796985,GPS1_Frame,0,0,0,,0.10785502868920141,0.0884323635298077,0.5356897772625124,0.8328165898944517,"(0.0, 0.0, 0.0, 0.0, 0.0, 0.0, 0.0, 0.0, 0.0)",-0.000537,0.000841,-0.000177,"(0.0, 0.0, 0.0, 0.0, 0.0, 0.0, 0.0, 0.0, 0.0)",0.319,-2.773,-9.517,"(0.0, 0.0, 0.0, 0.0, 0.0, 0.0, 0.0, 0.0, 0.0)",0,0,0,,4.74e-06,-3.1500000000000003e-06,1.742e-05,"(0.0, 0.0, 0.0, 0.0, 0.0, 0.0, 0.0, 0.0, 0.0)","$VNYMR,+065.755,+001.819,+015.934,+00.0474,-00.0315,+00.1742,+00.319,-02.773,-09.517,-00.000537,+00.000841,-00.000177*6A
"
1698962798.095686,0,1698962798,76428174,GPS1_Frame,0,0,0,,0.10787605989512877,0.088447329224657,0.5356947295758099,0.8328090911843048,"(0.0, 0.0, 0.0, 0.0, 0.0, 0.0, 0.0, 0.0, 0.0)",-0.000288,-6.4e-05,-1.7e-05,"(0.0, 0.0, 0.0, 0.0, 0.0, 0.0, 0.0, 0.0, 0.0)",0.333,-2.785,-9.51,"(0.0, 0.0, 0.0, 0.0, 0.0, 0.0, 0.0, 0.0, 0.0)",0,0,0,,5.2600000000000005e-06,-3.7400000000000006e-06,1.745e-05,"(0.0, 0.0, 0.0, 0.0, 0.0, 0.0, 0.0, 0.0, 0.0)","$VNYMR,+065.756,+001.819,+015.937,+00.0526,-00.0374,+00.1745,+00.333,-02.785,-09.510,-00.000288,-00.000064,-00.000017*67
"
1698962798.1372159,0,1698962798,100599527,GPS1_Frame,0,0,0,,0.10789291089284239,0.08845385424851294,0.5356713827718049,0.8328212323944404,"(0.0, 0.0, 0.0, 0.0, 0.0, 0.0, 0.0, 0.0, 0.0)",0.000252,-0.001198,-8.6e-05,"(0.0, 0.0, 0.0, 0.0, 0.0, 0.0, 0.0, 0.0, 0.0)",0.298,-2.722,-9.518,"(0.0, 0.0, 0.0, 0.0, 0.0, 0.0, 0.0, 0.0, 0.0)",0,0,0,,4.72e-06,-4.07e-06,1.7440000000000002e-05,"(0.0, 0.0, 0.0, 0.0, 0.0, 0.0, 0.0, 0.0, 0.0)","$VNYMR,+065.753,+001.819,+015.939,+00.0472,-00.0407,+00.1744,+00.298,-02.722,-09.518,+00.000252,-00.001198,-00.000086*61
"
1698962798.137528,0,1698962798,125558376,GPS1_Frame,0,0,0,,0.10787837540382429,0.08844450500570306,0.5356729265012102,0.832823115354129,"(0.0, 0.0, 0.0, 0.0, 0.0, 0.0, 0.0, 0.0, 0.0)",-0.000614,0.000906,-0.000458,"(0.0, 0.0, 0.0, 0.0, 0.0, 0.0, 0.0, 0.0, 0.0)",0.305,-2.67,-9.513,"(0.0, 0.0, 0.0, 0.0, 0.0, 0.0, 0.0, 0.0, 0.0)",0,0,0,,4.74e-06,-3.1500000000000003e-06,1.755e-05,"(0.0, 0.0, 0.0, 0.0, 0.0, 0.0, 0.0, 0.0, 0.0)","$VNYMR,+065.753,+001.819,+015.937,+00.0474,-00.0315,+00.1755,+00.305,-02.670,-09.513,-00.000614,+00.000906,-00.000458*6A
"
1698962798.1806717,0,1698962798,151255607,GPS1_Frame,0,0,0,,0.1078632376586325,0.08845244163483629,0.5356569820295144,0.832834488439129,"(0.0, 0.0, 0.0, 0.0, 0.0, 0.0, 0.0, 0.0, 0.0)",0.000279,-0.000204,-0.00128,"(0.0, 0.0, 0.0, 0.0, 0.0, 0.0, 0.0, 0.0, 0.0)",0.308,-2.722,-9.51,"(0.0, 0.0, 0.0, 0.0, 0.0, 0.0, 0.0, 0.0, 0.0)",0,0,0,,5.04e-06,-3.96e-06,1.795e-05,"(0.0, 0.0, 0.0, 0.0, 0.0, 0.0, 0.0, 0.0, 0.0)","$VNYMR,+065.751,+001.821,+015.936,+00.0504,-00.0396,+00.1795,+00.308,-02.722,-09.510,+00.000279,-00.000204,-00.001280*6F
"
1698962798.1834984,0,1698962798,176416158,GPS1_Frame,0,0,0,,0.10786376367128624,0.08843675504450864,0.5356297724471166,0.8328535859994316,"(0.0, 0.0, 0.0, 0.0, 0.0, 0.0, 0.0, 0.0, 0.0)",-0.000374,-0.001175,0.000202,"(0.0, 0.0, 0.0, 0.0, 0.0, 0.0, 0.0, 0.0, 0.0)",0.271,-2.681,-9.544,"(0.0, 0.0, 0.0, 0.0, 0.0, 0.0, 0.0, 0.0, 0.0)",0,0,0,,5.04e-06,-3.84e-06,1.77e-05,"(0.0, 0.0, 0.0, 0.0, 0.0, 0.0, 0.0, 0.0, 0.0)","$VNYMR,+065.747,+001.820,+015.935,+00.0504,-00.0384,+00.1770,+00.271,-02.681,-09.544,-00.000374,-00.001175,+00.000202*67
"
1698962798.2327404,0,1698962798,203934192,GPS1_Frame,0,0,0,,0.10786692678551375,0.08843139052377481,0.5356453986644762,0.8328436961191786,"(0.0, 0.0, 0.0, 0.0, 0.0, 0.0, 0.0, 0.0, 0.0)",0.001271,0.001387,0.001767,"(0.0, 0.0, 0.0, 0.0, 0.0, 0.0, 0.0, 0.0, 0.0)",0.273,-2.701,-9.516,"(0.0, 0.0, 0.0, 0.0, 0.0, 0.0, 0.0, 0.0, 0.0)",0,0,0,,4.93e-06,-3.96e-06,1.7820000000000002e-05,"(0.0, 0.0, 0.0, 0.0, 0.0, 0.0, 0.0, 0.0, 0.0)","$VNYMR,+065.749,+001.819,+015.935,+00.0493,-00.0396,+00.1782,+00.273,-02.701,-09.516,+00.001271,+00.001387,+00.001767*63
"
1698962798.2773287,0,1698962798,232975959,GPS1_Frame,0,0,0,,0.1078612790013721,0.08842323415393866,0.5356763319281137,0.8328253980072818,"(0.0, 0.0, 0.0, 0.0, 0.0, 0.0, 0.0, 0.0, 0.0)",-0.001265,0.002289,0.001876,"(0.0, 0.0, 0.0, 0.0, 0.0, 0.0, 0.0, 0.0, 0.0)",0.325,-2.717,-9.511,"(0.0, 0.0, 0.0, 0.0, 0.0, 0.0, 0.0, 0.0, 0.0)",0,0,0,,5.04e-06,-4.1900000000000005e-06,1.554e-05,"(0.0, 0.0, 0.0, 0.0, 0.0, 0.0, 0.0, 0.0, 0.0)","$VNYMR,+065.753,+001.818,+015.934,+00.0504,-00.0419,+00.1554,+00.325,-02.717,-09.511,-00.001265,+00.002289,+00.001876*6C
"
1698962798.2778625,0,1698962798,251253604,GPS1_Frame,0,0,0,,0.1078500759838341,0.08842486527316563,0.5356687456645152,0.8328315551357963,"(0.0, 0.0, 0.0, 0.0, 0.0, 0.0, 0.0, 0.0, 0.0)",-0.000323,-0.001005,7.8e-05,"(0.0, 0.0, 0.0, 0.0, 0.0, 0.0, 0.0, 0.0, 0.0)",0.375,-2.719,-9.521,"(0.0, 0.0, 0.0, 0.0, 0.0, 0.0, 0.0, 0.0, 0.0)",0,0,0,,4.94e-06,-3.84e-06,1.7690000000000002e-05,"(0.0, 0.0, 0.0, 0.0, 0.0, 0.0, 0.0, 0.0, 0.0)","$VNYMR,+065.752,+001.819,+015.933,+00.0494,-00.0384,+00.1769,+00.375,-02.719,-09.521,-00.000323,-00.001005,+00.000078*62
"
1698962798.3201764,0,1698962798,303654909,GPS1_Frame,0,0,0,,0.10783160509289619,0.08842182207139392,0.5356619310255065,0.8328386530263168,"(0.0, 0.0, 0.0, 0.0, 0.0, 0.0, 0.0, 0.0, 0.0)",-0.000245,0.000386,-0.000426,"(0.0, 0.0, 0.0, 0.0, 0.0, 0.0, 0.0, 0.0, 0.0)",0.33,-2.751,-9.531,"(0.0, 0.0, 0.0, 0.0, 0.0, 0.0, 0.0, 0.0, 0.0)",0,0,0,,4.7300000000000005e-06,-3.72e-06,1.73e-05,"(0.0, 0.0, 0.0, 0.0, 0.0, 0.0, 0.0, 0.0, 0.0)","$VNYMR,+065.751,+001.820,+015.931,+00.0473,-00.0372,+00.1730,+00.330,-02.751,-09.531,-00.000245,+00.000386,-00.000426*6E
"
1698962798.3203816,0,1698962798,275917053,GPS1_Frame,0,0,0,,0.1078355403146567,0.08841551607638636,0.5356702888879676,0.8328334373478732,"(0.0, 0.0, 0.0, 0.0, 0.0, 0.0, 0.0, 0.0, 0.0)",-0.000544,0.000569,0.0013,"(0.0, 0.0, 0.0, 0.0, 0.0, 0.0, 0.0, 0.0, 0.0)",0.356,-2.688,-9.498,"(0.0, 0.0, 0.0, 0.0, 0.0, 0.0, 0.0, 0.0, 0.0)",0,0,0,,4.85e-06,-3.04e-06,1.7680000000000004e-05,"(0.0, 0.0, 0.0, 0.0, 0.0, 0.0, 0.0, 0.0, 0.0)","$VNYMR,+065.752,+001.819,+015.931,+00.0485,-00.0304,+00.1768,+00.356,-02.688,-09.498,-00.000544,+00.000569,+00.001300*60
"
1698962798.3659885,0,1698962798,328549861,GPS1_Frame,0,0,0,,0.10785888717630207,0.08842765738221418,0.5356534382736879,0.8328399629776179,"(0.0, 0.0, 0.0, 0.0, 0.0, 0.0, 0.0, 0.0, 0.0)",0.001067,0.001077,0.000394,"(0.0, 0.0, 0.0, 0.0, 0.0, 0.0, 0.0, 0.0, 0.0)",0.298,-2.771,-9.494,"(0.0, 0.0, 0.0, 0.0, 0.0, 0.0, 0.0, 0.0, 0.0)",0,0,0,,5.18e-06,-2.48e-06,1.73e-05,"(0.0, 0.0, 0.0, 0.0, 0.0, 0.0, 0.0, 0.0, 0.0)","$VNYMR,+065.750,+001.819,+015.934,+00.0518,-00.0248,+00.1730,+00.298,-02.771,-09.494,+00.001067,+00.001077,+00.000394*6A
"
1698962798.3660133,0,1698962798,350006103,GPS1_Frame,0,0,0,,0.10787829969211964,0.0884461035341394,0.5356282288529802,0.8328517032947612,"(0.0, 0.0, 0.0, 0.0, 0.0, 0.0, 0.0, 0.0, 0.0)",-0.000175,0.000863,0.000207,"(0.0, 0.0, 0.0, 0.0, 0.0, 0.0, 0.0, 0.0, 0.0)",0.32,-2.746,-9.504,"(0.0, 0.0, 0.0, 0.0, 0.0, 0.0, 0.0, 0.0, 0.0)",0,0,0,,4.94e-06,-3.7300000000000003e-06,1.7310000000000002e-05,"(0.0, 0.0, 0.0, 0.0, 0.0, 0.0, 0.0, 0.0, 0.0)","$VNYMR,+065.747,+001.820,+015.937,+00.0494,-00.0373,+00.1731,+00.320,-02.746,-09.504,-00.000175,+00.000863,+00.000207*64
"
1698962798.4125242,0,1698962798,375787258,GPS1_Frame,0,0,0,,0.10789258960201133,0.08844070603908621,0.5356067433042417,0.8328642429299651,"(0.0, 0.0, 0.0, 0.0, 0.0, 0.0, 0.0, 0.0, 0.0)",0.000513,-0.000957,-0.001423,"(0.0, 0.0, 0.0, 0.0, 0.0, 0.0, 0.0, 0.0, 0.0)",0.318,-2.707,-9.5,"(0.0, 0.0, 0.0, 0.0, 0.0, 0.0, 0.0, 0.0, 0.0)",0,0,0,,5.1600000000000006e-06,-3.2800000000000004e-06,1.7440000000000002e-05,"(0.0, 0.0, 0.0, 0.0, 0.0, 0.0, 0.0, 0.0, 0.0)","$VNYMR,+065.744,+001.819,+015.938,+00.0516,-00.0328,+00.1744,+00.318,-02.707,-09.500,+00.000513,-00.000957,-00.001423*6A
"
1698962798.413176,0,1698962798,400049448,GPS1_Frame,0,0,0,,0.10787959676424476,0.08842947508375927,0.5355937504664754,0.8328754738852922,"(0.0, 0.0, 0.0, 0.0, 0.0, 0.0, 0.0, 0.0, 0.0)",-0.000652,-0.00086,-0.00059,"(0.0, 0.0, 0.0, 0.0, 0.0, 0.0, 0.0, 0.0, 0.0)",0.293,-2.67,-9.521,"(0.0, 0.0, 0.0, 0.0, 0.0, 0.0, 0.0, 0.0, 0.0)",0,0,0,,4.94e-06,-3.5000000000000004e-06,1.743e-05,"(0.0, 0.0, 0.0, 0.0, 0.0, 0.0, 0.0, 0.0, 0.0)","$VNYMR,+065.742,+001.819,+015.936,+00.0494,-00.0350,+00.1743,+00.293,-02.670,-09.521,-00.000652,-00.000860,-00.000590*6C
"
1698962798.456937,0,1698962798,425922155,GPS1_Frame,0,0,0,,0.10784975232626685,0.08841172045109547,0.5356041051332668,0.8328745650903457,"(0.0, 0.0, 0.0, 0.0, 0.0, 0.0, 0.0, 0.0, 0.0)",-0.000991,0.000591,-0.000611,"(0.0, 0.0, 0.0, 0.0, 0.0, 0.0, 0.0, 0.0, 0.0)",0.287,-2.661,-9.504,"(0.0, 0.0, 0.0, 0.0, 0.0, 0.0, 0.0, 0.0, 0.0)",0,0,0,,5.050000000000001e-06,-3.5000000000000004e-06,1.718e-05,"(0.0, 0.0, 0.0, 0.0, 0.0, 0.0, 0.0, 0.0, 0.0)","$VNYMR,+065.743,+001.819,+015.932,+00.0505,-00.0350,+00.1718,+00.287,-02.661,-09.504,-00.000991,+00.000591,-00.000611*63
"
1698962798.5019336,0,1698962798,449903964,GPS1_Frame,0,0,0,,0.10784820923422124,0.08841360277090508,0.5356186414551061,0.8328652169083702,"(0.0, 0.0, 0.0, 0.0, 0.0, 0.0, 0.0, 0.0, 0.0)",0.001242,0.001995,0.001366,"(0.0, 0.0, 0.0, 0.0, 0.0, 0.0, 0.0, 0.0, 0.0)",0.315,-2.74,-9.541,"(0.0, 0.0, 0.0, 0.0, 0.0, 0.0, 0.0, 0.0, 0.0)",0,0,0,,5.04e-06,-4.07e-06,1.77e-05,"(0.0, 0.0, 0.0, 0.0, 0.0, 0.0, 0.0, 0.0, 0.0)","$VNYMR,+065.745,+001.819,+015.932,+00.0504,-00.0407,+00.1770,+00.315,-02.740,-09.541,+00.001242,+00.001995,+00.001366*6F
"
1698962798.5020695,0,1698962798,475720405,GPS1_Frame,0,0,0,,0.10786453542345675,0.08843581375223139,0.5356225044080899,0.8328582602192693,"(0.0, 0.0, 0.0, 0.0, 0.0, 0.0, 0.0, 0.0, 0.0)",-0.000319,-0.000555,0.000135,"(0.0, 0.0, 0.0, 0.0, 0.0, 0.0, 0.0, 0.0, 0.0)",0.328,-2.767,-9.481,"(0.0, 0.0, 0.0, 0.0, 0.0, 0.0, 0.0, 0.0, 0.0)",0,0,0,,4.94e-06,-3.7300000000000003e-06,1.756e-05,"(0.0, 0.0, 0.0, 0.0, 0.0, 0.0, 0.0, 0.0, 0.0)","$VNYMR,+065.746,+001.820,+015.935,+00.0494,-00.0373,+00.1756,+00.328,-02.767,-09.481,-00.000319,-00.000555,+00.000135*65
"
1698962798.5494397,0,1698962798,504506826,GPS1_Frame,0,0,0,,0.10787496645987979,0.08843512352501724,0.5356373589901102,0.832847429120421,"(0.0, 0.0, 0.0, 0.0, 0.0, 0.0, 0.0, 0.0, 0.0)",-0.000558,0.000115,0.000852,"(0.0, 0.0, 0.0, 0.0, 0.0, 0.0, 0.0, 0.0, 0.0)",0.324,-2.741,-9.513,"(0.0, 0.0, 0.0, 0.0, 0.0, 0.0, 0.0, 0.0, 0.0)",0,0,0,,5.03e-06,-4.2999999999999995e-06,1.77e-05,"(0.0, 0.0, 0.0, 0.0, 0.0, 0.0, 0.0, 0.0, 0.0)","$VNYMR,+065.748,+001.819,+015.936,+00.0503,-00.0430,+00.1770,+00.324,-02.741,-09.513,-00.000558,+00.000115,+00.000852*66
"
1698962798.549463,0,1698962798,526093006,GPS1_Frame,0,0,0,,0.107878901344005,0.0884288178260186,0.5356457172187468,0.8328422134161535,"(0.0, 0.0, 0.0, 0.0, 0.0, 0.0, 0.0, 0.0, 0.0)",-2.9e-05,0.000754,0.000784,"(0.0, 0.0, 0.0, 0.0, 0.0, 0.0, 0.0, 0.0, 0.0)",0.349,-2.701,-9.487,"(0.0, 0.0, 0.0, 0.0, 0.0, 0.0, 0.0, 0.0, 0.0)",0,0,0,,5.15e-06,-3.6200000000000005e-06,1.732e-05,"(0.0, 0.0, 0.0, 0.0, 0.0, 0.0, 0.0, 0.0, 0.0)","$VNYMR,+065.749,+001.818,+015.936,+00.0515,-00.0362,+00.1732,+00.349,-02.701,-09.487,-00.000029,+00.000754,+00.000784*60
"
1698962798.592753,0,1698962798,550196170,GPS1_Frame,0,0,0,,0.107878901344005,0.0884288178260186,0.5356457172187468,0.8328422134161535,"(0.0, 0.0, 0.0, 0.0, 0.0, 0.0, 0.0, 0.0, 0.0)",0.000724,0.00093,0.000584,"(0.0, 0.0, 0.0, 0.0, 0.0, 0.0, 0.0, 0.0, 0.0)",0.344,-2.703,-9.531,"(0.0, 0.0, 0.0, 0.0, 0.0, 0.0, 0.0, 0.0, 0.0)",0,0,0,,4.84e-06,-3.27e-06,1.7680000000000004e-05,"(0.0, 0.0, 0.0, 0.0, 0.0, 0.0, 0.0, 0.0, 0.0)","$VNYMR,+065.749,+001.818,+015.936,+00.0484,-00.0327,+00.1768,+00.344,-02.703,-09.531,+00.000724,+00.000930,+00.000584*66
"
1698962798.5928745,0,1698962798,576051235,GPS1_Frame,0,0,0,,0.10786948807524442,0.08844331198389155,0.5356435366096954,0.8328432960623281,"(0.0, 0.0, 0.0, 0.0, 0.0, 0.0, 0.0, 0.0, 0.0)",-0.00014,-0.000359,-0.000186,"(0.0, 0.0, 0.0, 0.0, 0.0, 0.0, 0.0, 0.0, 0.0)",0.349,-2.749,-9.5,"(0.0, 0.0, 0.0, 0.0, 0.0, 0.0, 0.0, 0.0, 0.0)",0,0,0,,4.96e-06,-2.7e-06,1.7680000000000004e-05,"(0.0, 0.0, 0.0, 0.0, 0.0, 0.0, 0.0, 0.0, 0.0)","$VNYMR,+065.749,+001.820,+015.936,+00.0496,-00.0270,+00.1768,+00.349,-02.749,-09.500,-00.000140,-00.000359,-00.000186*6D
"
1698962798.6408408,0,1698962798,600883960,GPS1_Frame,0,0,0,,0.10788479580745655,0.08845171924466944,0.5356347249683171,0.8328460875842311,"(0.0, 0.0, 0.0, 0.0, 0.0, 0.0, 0.0, 0.0, 0.0)",-0.000174,0.000364,0.000732,"(0.0, 0.0, 0.0, 0.0, 0.0, 0.0, 0.0, 0.0, 0.0)",0.296,-2.724,-9.5,"(0.0, 0.0, 0.0, 0.0, 0.0, 0.0, 0.0, 0.0, 0.0)",0,0,0,,4.62e-06,-3.72e-06,1.794e-05,"(0.0, 0.0, 0.0, 0.0, 0.0, 0.0, 0.0, 0.0, 0.0)","$VNYMR,+065.748,+001.820,+015.938,+00.0462,-00.0372,+00.1794,+00.296,-02.724,-09.500,-00.000174,+00.000364,+00.000732*61
"
1698962798.6416202,0,1698962798,628181934,GPS1_Frame,0,0,0,,0.10790070506519356,0.08844284096779743,0.5356434019741471,0.8328393888677104,"(0.0, 0.0, 0.0, 0.0, 0.0, 0.0, 0.0, 0.0, 0.0)",-0.000637,0.000754,-0.001397,"(0.0, 0.0, 0.0, 0.0, 0.0, 0.0, 0.0, 0.0, 0.0)",0.269,-2.699,-9.537,"(0.0, 0.0, 0.0, 0.0, 0.0, 0.0, 0.0, 0.0, 0.0)",0,0,0,,4.94e-06,-3.5000000000000004e-06,1.756e-05,"(0.0, 0.0, 0.0, 0.0, 0.0, 0.0, 0.0, 0.0, 0.0)","$VNYMR,+065.749,+001.818,+015.939,+00.0494,-00.0350,+00.1756,+00.269,-02.699,-09.537,-00.000637,+00.000754,-00.001397*65
"
1698962798.6845355,0,1698962798,653586626,GPS1_Frame,0,0,0,,0.10789737206949254,0.08843186110949632,0.5356525320107955,0.8328351145284592,"(0.0, 0.0, 0.0, 0.0, 0.0, 0.0, 0.0, 0.0, 0.0)",9.9e-05,0.001308,-0.000603,"(0.0, 0.0, 0.0, 0.0, 0.0, 0.0, 0.0, 0.0, 0.0)",0.295,-2.681,-9.512,"(0.0, 0.0, 0.0, 0.0, 0.0, 0.0, 0.0, 0.0, 0.0)",0,0,0,,4.950000000000001e-06,-3.1600000000000007e-06,1.7680000000000004e-05,"(0.0, 0.0, 0.0, 0.0, 0.0, 0.0, 0.0, 0.0, 0.0)","$VNYMR,+065.750,+001.817,+015.938,+00.0495,-00.0316,+00.1768,+00.295,-02.681,-09.512,+00.000099,+00.001308,-00.000603*61
"
1698962798.728521,0,1698962798,676854133,GPS1_Frame,0,0,0,,0.10786794443181953,0.08844519464815012,0.535658072385781,0.8328339471921482,"(0.0, 0.0, 0.0, 0.0, 0.0, 0.0, 0.0, 0.0, 0.0)",-0.001114,0.000503,0.000247,"(0.0, 0.0, 0.0, 0.0, 0.0, 0.0, 0.0, 0.0, 0.0)",0.291,-2.677,-9.549,"(0.0, 0.0, 0.0, 0.0, 0.0, 0.0, 0.0, 0.0, 0.0)",0,0,0,,4.85e-06,-3.04e-06,1.7680000000000004e-05,"(0.0, 0.0, 0.0, 0.0, 0.0, 0.0, 0.0, 0.0, 0.0)","$VNYMR,+065.751,+001.820,+015.936,+00.0485,-00.0304,+00.1768,+00.291,-02.677,-09.549,-00.001114,+00.000503,+00.000247*66
"
1698962798.7285287,0,1698962798,700661659,GPS1_Frame,0,0,0,,0.10786538335015798,0.08843327314333228,0.5356599344475438,0.8328343472164998,"(0.0, 0.0, 0.0, 0.0, 0.0, 0.0, 0.0, 0.0, 0.0)",0.001436,0.000116,0.000181,"(0.0, 0.0, 0.0, 0.0, 0.0, 0.0, 0.0, 0.0, 0.0)",0.316,-2.722,-9.502,"(0.0, 0.0, 0.0, 0.0, 0.0, 0.0, 0.0, 0.0, 0.0)",0,0,0,,5.06e-06,-3.27e-06,1.7310000000000002e-05,"(0.0, 0.0, 0.0, 0.0, 0.0, 0.0, 0.0, 0.0, 0.0)","$VNYMR,+065.751,+001.819,+015.935,+00.0506,-00.0327,+00.1731,+00.316,-02.722,-09.502,+00.001436,+00.000116,+00.000181*62
"
1698962798.7729902,0,1698962798,725946187,GPS1_Frame,0,0,0,,0.10786830057401409,0.08841316325496386,0.5356556185387369,0.8328388803498601,"(0.0, 0.0, 0.0, 0.0, 0.0, 0.0, 0.0, 0.0, 0.0)",-0.001019,-0.001341,0.000282,"(0.0, 0.0, 0.0, 0.0, 0.0, 0.0, 0.0, 0.0, 0.0)",0.299,-2.721,-9.524,"(0.0, 0.0, 0.0, 0.0, 0.0, 0.0, 0.0, 0.0, 0.0)",0,0,0,,4.74e-06,-3.38e-06,1.73e-05,"(0.0, 0.0, 0.0, 0.0, 0.0, 0.0, 0.0, 0.0, 0.0)","$VNYMR,+065.750,+001.817,+015.934,+00.0474,-00.0338,+00.1730,+00.299,-02.721,-09.524,-00.001019,-00.001341,+00.000282*6E
"
1698962798.7730112,0,1698962798,751697301,GPS1_Frame,0,0,0,,0.10787402526139092,0.08841972049908263,0.5356693826505254,0.8328285899220644,"(0.0, 0.0, 0.0, 0.0, 0.0, 0.0, 0.0, 0.0, 0.0)",-0.000731,0.000155,0.00068,"(0.0, 0.0, 0.0, 0.0, 0.0, 0.0, 0.0, 0.0, 0.0)",0.349,-2.743,-9.516,"(0.0, 0.0, 0.0, 0.0, 0.0, 0.0, 0.0, 0.0, 0.0)",0,0,0,,5.04e-06,-4.07e-06,1.7440000000000002e-05,"(0.0, 0.0, 0.0, 0.0, 0.0, 0.0, 0.0, 0.0, 0.0)","$VNYMR,+065.752,+001.817,+015.935,+00.0504,-00.0407,+00.1744,+00.349,-02.743,-09.516,-00.000731,+00.000155,+00.000680*60
"
1698962798.81674,0,1698962798,776539564,GPS1_Frame,0,0,0,,0.1078917243764315,0.08842370579630159,0.5356834650824005,0.8328168161736662,"(0.0, 0.0, 0.0, 0.0, 0.0, 0.0, 0.0, 0.0, 0.0)",0.000923,-0.00056,0.000132,"(0.0, 0.0, 0.0, 0.0, 0.0, 0.0, 0.0, 0.0, 0.0)",0.36,-2.729,-9.533,"(0.0, 0.0, 0.0, 0.0, 0.0, 0.0, 0.0, 0.0, 0.0)",0,0,0,,5.050000000000001e-06,-3.6200000000000005e-06,1.6930000000000002e-05,"(0.0, 0.0, 0.0, 0.0, 0.0, 0.0, 0.0, 0.0, 0.0)","$VNYMR,+065.754,+001.816,+015.937,+00.0505,-00.0362,+00.1693,+00.360,-02.729,-09.533,+00.000923,-00.000560,+00.000132*6A
"
1698962798.81676,0,1698962798,801033735,GPS1_Frame,0,0,0,,0.10789505689180692,0.08843468582578616,0.5356743353995399,0.8328210908925573,"(0.0, 0.0, 0.0, 0.0, 0.0, 0.0, 0.0, 0.0, 0.0)",0.000964,0.00014,0.001329,"(0.0, 0.0, 0.0, 0.0, 0.0, 0.0, 0.0, 0.0, 0.0)",0.353,-2.709,-9.51,"(0.0, 0.0, 0.0, 0.0, 0.0, 0.0, 0.0, 0.0, 0.0)",0,0,0,,4.84e-06,-3.5000000000000004e-06,1.743e-05,"(0.0, 0.0, 0.0, 0.0, 0.0, 0.0, 0.0, 0.0, 0.0)","$VNYMR,+065.753,+001.817,+015.938,+00.0484,-00.0350,+00.1743,+00.353,-02.709,-09.510,+00.000964,+00.000140,+00.001329*6F
"
1698962798.8642068,0,1698962798,832577466,GPS1_Frame,0,0,0,,0.10786306813551637,0.08843609702215893,0.5356817378161975,0.832820323386803,"(0.0, 0.0, 0.0, 0.0, 0.0, 0.0, 0.0, 0.0, 0.0)",-0.000971,-0.000632,-0.000625,"(0.0, 0.0, 0.0, 0.0, 0.0, 0.0, 0.0, 0.0, 0.0)",0.306,-2.732,-9.531,"(0.0, 0.0, 0.0, 0.0, 0.0, 0.0, 0.0, 0.0, 0.0)",0,0,0,,5.050000000000001e-06,-3.5000000000000004e-06,1.7820000000000002e-05,"(0.0, 0.0, 0.0, 0.0, 0.0, 0.0, 0.0, 0.0, 0.0)","$VNYMR,+065.754,+001.819,+015.935,+00.0505,-00.0350,+00.1782,+00.306,-02.732,-09.531,-00.000971,-00.000632,-00.000625*6D
"
1698962798.8661668,0,1698962798,850609064,GPS1_Frame,0,0,0,,0.1078708617701825,0.0884250847861761,0.5356537567925694,0.8328384803763109,"(0.0, 0.0, 0.0, 0.0, 0.0, 0.0, 0.0, 0.0, 0.0)",-0.000528,0.001339,-0.001136,"(0.0, 0.0, 0.0, 0.0, 0.0, 0.0, 0.0, 0.0, 0.0)",0.298,-2.717,-9.506,"(0.0, 0.0, 0.0, 0.0, 0.0, 0.0, 0.0, 0.0, 0.0)",0,0,0,,4.83e-06,-3.84e-06,1.7440000000000002e-05,"(0.0, 0.0, 0.0, 0.0, 0.0, 0.0, 0.0, 0.0, 0.0)","$VNYMR,+065.750,+001.818,+015.935,+00.0483,-00.0384,+00.1744,+00.298,-02.717,-09.506,-00.000528,+00.001339,-00.001136*6C
"
1698962798.9130976,0,1698962798,876515388,GPS1_Frame,0,0,0,,0.10788206470209158,0.08842345364768095,0.5356613432098247,0.8328323230706626,"(0.0, 0.0, 0.0, 0.0, 0.0, 0.0, 0.0, 0.0, 0.0)",-3.1e-05,-0.001099,0.00069,"(0.0, 0.0, 0.0, 0.0, 0.0, 0.0, 0.0, 0.0, 0.0)",0.258,-2.693,-9.515,"(0.0, 0.0, 0.0, 0.0, 0.0, 0.0, 0.0, 0.0, 0.0)",0,0,0,,5.06e-06,-3.04e-06,1.73e-05,"(0.0, 0.0, 0.0, 0.0, 0.0, 0.0, 0.0, 0.0, 0.0)","$VNYMR,+065.751,+001.817,+015.936,+00.0506,-00.0304,+00.1730,+00.258,-02.693,-09.515,-00.000031,-00.001099,+00.000690*6B
"
1698962798.957314,0,1698962798,902455568,GPS1_Frame,0,0,0,,0.10789635408294262,0.08841805647761679,0.5356398581615924,0.8328448633526887,"(0.0, 0.0, 0.0, 0.0, 0.0, 0.0, 0.0, 0.0, 0.0)",0.000522,0.000933,-0.000251,"(0.0, 0.0, 0.0, 0.0, 0.0, 0.0, 0.0, 0.0, 0.0)",0.288,-2.731,-9.546,"(0.0, 0.0, 0.0, 0.0, 0.0, 0.0, 0.0, 0.0, 0.0)",0,0,0,,4.83e-06,-3.84e-06,1.7440000000000002e-05,"(0.0, 0.0, 0.0, 0.0, 0.0, 0.0, 0.0, 0.0, 0.0)","$VNYMR,+065.748,+001.816,+015.937,+00.0483,-00.0384,+00.1744,+00.288,-02.731,-09.546,+00.000522,+00.000933,-00.000251*66
"
1698962798.9573379,0,1698962798,927302598,GPS1_Frame,0,0,0,,0.10790439365113053,0.0884217891737085,0.5356318185934044,0.8328485960487803,"(0.0, 0.0, 0.0, 0.0, 0.0, 0.0, 0.0, 0.0, 0.0)",0.001127,-8.1e-05,0.000294,"(0.0, 0.0, 0.0, 0.0, 0.0, 0.0, 0.0, 0.0, 0.0)",0.275,-2.69,-9.498,"(0.0, 0.0, 0.0, 0.0, 0.0, 0.0, 0.0, 0.0, 0.0)",0,0,0,,4.85e-06,-3.1500000000000003e-06,1.743e-05,"(0.0, 0.0, 0.0, 0.0, 0.0, 0.0, 0.0, 0.0, 0.0)","$VNYMR,+065.747,+001.816,+015.938,+00.0485,-00.0315,+00.1743,+00.275,-02.690,-09.498,+00.001127,-00.000081,+00.000294*6C
"
1698962798.95735,0,1698962798,949740171,GPS1_Frame,0,0,0,,0.10789687856924046,0.0884023687333989,0.5356126477904424,0.8328639602745759,"(0.0, 0.0, 0.0, 0.0, 0.0, 0.0, 0.0, 0.0, 0.0)",0.000364,0.000761,-0.000477,"(0.0, 0.0, 0.0, 0.0, 0.0, 0.0, 0.0, 0.0, 0.0)",0.307,-2.69,-9.505,"(0.0, 0.0, 0.0, 0.0, 0.0, 0.0, 0.0, 0.0, 0.0)",0,0,0,,5.1600000000000006e-06,-3.39e-06,1.795e-05,"(0.0, 0.0, 0.0, 0.0, 0.0, 0.0, 0.0, 0.0, 0.0)","$VNYMR,+065.744,+001.815,+015.936,+00.0516,-00.0339,+00.1795,+00.307,-02.690,-09.505,+00.000364,+00.000761,-00.000477*6B
"
1698962799.000936,0,1698962798,975737571,GPS1_Frame,0,0,0,,0.10789765002133253,0.08840142715214099,0.535605379660884,0.8328686343449724,"(0.0, 0.0, 0.0, 0.0, 0.0, 0.0, 0.0, 0.0, 0.0)",-4.5e-05,-0.000705,0.001446,"(0.0, 0.0, 0.0, 0.0, 0.0, 0.0, 0.0, 0.0, 0.0)",0.325,-2.71,-9.522,"(0.0, 0.0, 0.0, 0.0, 0.0, 0.0, 0.0, 0.0, 0.0)",0,0,0,,5.050000000000001e-06,-3.39e-06,1.7440000000000002e-05,"(0.0, 0.0, 0.0, 0.0, 0.0, 0.0, 0.0, 0.0, 0.0)","$VNYMR,+065.743,+001.815,+015.936,+00.0505,-00.0339,+00.1744,+00.325,-02.710,-09.522,-00.000045,-00.000705,+00.001446*69
"
1698962799.0094178,0,1698962799,1582384,GPS1_Frame,0,0,0,,0.10789038186727123,0.08839675311009174,0.5356061510884732,0.8328695758978831,"(0.0, 0.0, 0.0, 0.0, 0.0, 0.0, 0.0, 0.0, 0.0)",0.000248,0.000552,0.000437,"(0.0, 0.0, 0.0, 0.0, 0.0, 0.0, 0.0, 0.0, 0.0)",0.337,-2.742,-9.508,"(0.0, 0.0, 0.0, 0.0, 0.0, 0.0, 0.0, 0.0, 0.0)",0,0,0,,4.83e-06,-3.7300000000000003e-06,1.7690000000000002e-05,"(0.0, 0.0, 0.0, 0.0, 0.0, 0.0, 0.0, 0.0, 0.0)","$VNYMR,+065.743,+001.815,+015.935,+00.0483,-00.0373,+00.1769,+00.337,-02.742,-09.508,+00.000248,+00.000552,+00.000437*60
"
1698962799.0525277,0,1698962799,25346994,GPS1_Frame,0,0,0,,0.10790670849117939,0.08841896421298728,0.5356100144845912,0.8328626185715853,"(0.0, 0.0, 0.0, 0.0, 0.0, 0.0, 0.0, 0.0, 0.0)",0.000259,0.000289,0.000715,"(0.0, 0.0, 0.0, 0.0, 0.0, 0.0, 0.0, 0.0, 0.0)",0.331,-2.759,-9.534,"(0.0, 0.0, 0.0, 0.0, 0.0, 0.0, 0.0, 0.0, 0.0)",0,0,0,,4.950000000000001e-06,-3.1600000000000007e-06,1.743e-05,"(0.0, 0.0, 0.0, 0.0, 0.0, 0.0, 0.0, 0.0, 0.0)","$VNYMR,+065.744,+001.816,+015.938,+00.0495,-00.0316,+00.1743,+00.331,-02.759,-09.534,+00.000259,+00.000289,+00.000715*64
"
1698962799.1005247,0,1698962799,49890518,GPS1_Frame,0,0,0,,0.10792047298294372,0.08842925414493831,0.5356157392615913,0.8328560610200101,"(0.0, 0.0, 0.0, 0.0, 0.0, 0.0, 0.0, 0.0, 0.0)",5.3e-05,0.000965,-2.4e-05,"(0.0, 0.0, 0.0, 0.0, 0.0, 0.0, 0.0, 0.0, 0.0)",0.348,-2.722,-9.486,"(0.0, 0.0, 0.0, 0.0, 0.0, 0.0, 0.0, 0.0, 0.0)",0,0,0,,5.04e-06,-3.96e-06,1.77e-05,"(0.0, 0.0, 0.0, 0.0, 0.0, 0.0, 0.0, 0.0, 0.0)","$VNYMR,+065.745,+001.816,+015.940,+00.0504,-00.0396,+00.1770,+00.348,-02.722,-09.486,+00.000053,+00.000965,-00.000024*63
"
1698962799.1005588,0,1698962799,76125860,GPS1_Frame,0,0,0,,0.10792619753940727,0.08843581195162457,0.5356295035328192,0.832845770832948,"(0.0, 0.0, 0.0, 0.0, 0.0, 0.0, 0.0, 0.0, 0.0)",-0.000836,-0.001718,0.000411,"(0.0, 0.0, 0.0, 0.0, 0.0, 0.0, 0.0, 0.0, 0.0)",0.324,-2.713,-9.524,"(0.0, 0.0, 0.0, 0.0, 0.0, 0.0, 0.0, 0.0, 0.0)",0,0,0,,4.62e-06,-3.61e-06,1.781e-05,"(0.0, 0.0, 0.0, 0.0, 0.0, 0.0, 0.0, 0.0, 0.0)","$VNYMR,+065.747,+001.816,+015.941,+00.0462,-00.0361,+00.1781,+00.324,-02.713,-09.524,-00.000836,-00.001718,+00.000411*6C
"
1698962799.1451204,0,1698962799,101976156,GPS1_Frame,0,0,0,,0.10791267955897826,0.08844026828394319,0.5356437206406724,0.832837905642198,"(0.0, 0.0, 0.0, 0.0, 0.0, 0.0, 0.0, 0.0, 0.0)",-0.000277,-0.000471,0.000302,"(0.0, 0.0, 0.0, 0.0, 0.0, 0.0, 0.0, 0.0, 0.0)",0.326,-2.7,-9.491,"(0.0, 0.0, 0.0, 0.0, 0.0, 0.0, 0.0, 0.0, 0.0)",0,0,0,,4.84e-06,-3.61e-06,1.756e-05,"(0.0, 0.0, 0.0, 0.0, 0.0, 0.0, 0.0, 0.0, 0.0)","$VNYMR,+065.749,+001.817,+015.940,+00.0484,-00.0361,+00.1756,+00.326,-02.700,-09.491,-00.000277,-00.000471,+00.000302*68
"
1698962799.1451435,0,1698962799,126771926,GPS1_Frame,0,0,0,,0.1079119077679328,0.0884412099963571,0.5356509885020712,0.8328332312372144,"(0.0, 0.0, 0.0, 0.0, 0.0, 0.0, 0.0, 0.0, 0.0)",4.1e-05,0.000856,-0.000326,"(0.0, 0.0, 0.0, 0.0, 0.0, 0.0, 0.0, 0.0, 0.0)",0.305,-2.705,-9.518,"(0.0, 0.0, 0.0, 0.0, 0.0, 0.0, 0.0, 0.0, 0.0)",0,0,0,,5.15e-06,-3.7300000000000003e-06,1.7440000000000002e-05,"(0.0, 0.0, 0.0, 0.0, 0.0, 0.0, 0.0, 0.0, 0.0)","$VNYMR,+065.750,+001.817,+015.940,+00.0515,-00.0373,+00.1744,+00.305,-02.705,-09.518,+00.000041,+00.000856,-00.000326*63
"
1698962799.185217,0,1698962799,152494907,GPS1_Frame,0,0,0,,0.10789599844909509,0.08845008802155524,0.5356423115002894,0.8328399303457291,"(0.0, 0.0, 0.0, 0.0, 0.0, 0.0, 0.0, 0.0, 0.0)",-0.00039,-0.00021,-0.000546,"(0.0, 0.0, 0.0, 0.0, 0.0, 0.0, 0.0, 0.0, 0.0)",0.295,-2.709,-9.501,"(0.0, 0.0, 0.0, 0.0, 0.0, 0.0, 0.0, 0.0, 0.0)",0,0,0,,5.04e-06,-3.84e-06,1.795e-05,"(0.0, 0.0, 0.0, 0.0, 0.0, 0.0, 0.0, 0.0, 0.0)","$VNYMR,+065.749,+001.819,+015.939,+00.0504,-00.0384,+00.1795,+00.295,-02.709,-09.501,-00.000390,-00.000210,-00.000546*64
"
1698962799.185226,0,1698962799,175697565,GPS1_Frame,0,0,0,,0.1079095166397453,0.08844563197203176,0.5356280942897405,0.8328477958253749,"(0.0, 0.0, 0.0, 0.0, 0.0, 0.0, 0.0, 0.0, 0.0)",0.000623,0.000308,-8.4e-05,"(0.0, 0.0, 0.0, 0.0, 0.0, 0.0, 0.0, 0.0, 0.0)",0.286,-2.709,-9.496,"(0.0, 0.0, 0.0, 0.0, 0.0, 0.0, 0.0, 0.0, 0.0)",0,0,0,,5.04e-06,-3.7300000000000003e-06,1.757e-05,"(0.0, 0.0, 0.0, 0.0, 0.0, 0.0, 0.0, 0.0, 0.0)","$VNYMR,+065.747,+001.818,+015.940,+00.0504,-00.0373,+00.1757,+00.286,-02.709,-09.496,+00.000623,+00.000308,-00.000084*60
"
1698962799.2302508,0,1698962799,201015472,GPS1_Frame,0,0,0,,0.10791499488280626,0.08843744310629108,0.5356219168117294,0.8328519284766015,"(0.0, 0.0, 0.0, 0.0, 0.0, 0.0, 0.0, 0.0, 0.0)",-0.000118,-0.000478,0.000307,"(0.0, 0.0, 0.0, 0.0, 0.0, 0.0, 0.0, 0.0, 0.0)",0.3,-2.708,-9.531,"(0.0, 0.0, 0.0, 0.0, 0.0, 0.0, 0.0, 0.0, 0.0)",0,0,0,,4.84e-06,-3.61e-06,1.756e-05,"(0.0, 0.0, 0.0, 0.0, 0.0, 0.0, 0.0, 0.0, 0.0)","$VNYMR,+065.746,+001.817,+015.940,+00.0484,-00.0361,+00.1756,+00.300,-02.708,-09.531,-00.000118,-00.000478,+00.000307*66
"
1698962799.2408078,0,1698962799,226041555,GPS1_Frame,0,0,0,,0.10790379223700546,0.08843907446877852,0.5356143300688685,0.8328580858422737,"(0.0, 0.0, 0.0, 0.0, 0.0, 0.0, 0.0, 0.0, 0.0)",-0.000329,0.001551,-0.000296,"(0.0, 0.0, 0.0, 0.0, 0.0, 0.0, 0.0, 0.0, 0.0)",0.341,-2.725,-9.517,"(0.0, 0.0, 0.0, 0.0, 0.0, 0.0, 0.0, 0.0, 0.0)",0,0,0,,4.83e-06,-3.84e-06,1.7690000000000002e-05,"(0.0, 0.0, 0.0, 0.0, 0.0, 0.0, 0.0, 0.0, 0.0)","$VNYMR,+065.745,+001.818,+015.939,+00.0483,-00.0384,+00.1769,+00.341,-02.725,-09.517,-00.000329,+00.001551,-00.000296*68
"
1698962799.2866385,0,1698962799,251713752,GPS1_Frame,0,0,0,,0.10789677031761652,0.08844914644797601,0.5356350435804305,0.832844604674991,"(0.0, 0.0, 0.0, 0.0, 0.0, 0.0, 0.0, 0.0, 0.0)",-0.000275,0.001457,0.001176,"(0.0, 0.0, 0.0, 0.0, 0.0, 0.0, 0.0, 0.0, 0.0)",0.327,-2.747,-9.501,"(0.0, 0.0, 0.0, 0.0, 0.0, 0.0, 0.0, 0.0, 0.0)",0,0,0,,5.15e-06,-3.5000000000000004e-06,1.807e-05,"(0.0, 0.0, 0.0, 0.0, 0.0, 0.0, 0.0, 0.0, 0.0)","$VNYMR,+065.748,+001.819,+015.939,+00.0515,-00.0350,+00.1807,+00.327,-02.747,-09.501,-00.000275,+00.001457,+00.001176*62
"
1698962799.2866514,0,1698962799,275387287,GPS1_Frame,0,0,0,,0.10790505559515869,0.08846762541063793,0.5356469448996716,0.8328339142055017,"(0.0, 0.0, 0.0, 0.0, 0.0, 0.0, 0.0, 0.0, 0.0)",4e-06,0.001309,-0.000607,"(0.0, 0.0, 0.0, 0.0, 0.0, 0.0, 0.0, 0.0, 0.0)",0.344,-2.744,-9.497,"(0.0, 0.0, 0.0, 0.0, 0.0, 0.0, 0.0, 0.0, 0.0)",0,0,0,,4.94e-06,-3.5000000000000004e-06,1.756e-05,"(0.0, 0.0, 0.0, 0.0, 0.0, 0.0, 0.0, 0.0, 0.0)","$VNYMR,+065.750,+001.820,+015.941,+00.0494,-00.0350,+00.1756,+00.344,-02.744,-09.497,+00.000004,+00.001309,-00.000607*6D
"
1698962799.3349679,0,1698962799,300154685,GPS1_Frame,0,0,0,,0.10792429794130355,0.08846972723210156,0.5356464915296351,0.8328314891917494,"(0.0, 0.0, 0.0, 0.0, 0.0, 0.0, 0.0, 0.0, 0.0)",7.4e-05,0.001587,-0.000483,"(0.0, 0.0, 0.0, 0.0, 0.0, 0.0, 0.0, 0.0, 0.0)",0.321,-2.722,-9.51,"(0.0, 0.0, 0.0, 0.0, 0.0, 0.0, 0.0, 0.0, 0.0)",0,0,0,,4.94e-06,-3.7300000000000003e-06,1.7820000000000002e-05,"(0.0, 0.0, 0.0, 0.0, 0.0, 0.0, 0.0, 0.0, 0.0)","$VNYMR,+065.750,+001.819,+015.943,+00.0494,-00.0373,+00.1782,+00.321,-02.722,-09.510,+00.000074,+00.001587,-00.000483*69
"
1698962799.3406594,0,1698962799,325019359,GPS1_Frame,0,0,0,,0.10793156576299438,0.08847440162618483,0.5356457194652249,0.8328305473428664,"(0.0, 0.0, 0.0, 0.0, 0.0, 0.0, 0.0, 0.0, 0.0)",0.000123,-0.0003,-0.000393,"(0.0, 0.0, 0.0, 0.0, 0.0, 0.0, 0.0, 0.0, 0.0)",0.321,-2.717,-9.486,"(0.0, 0.0, 0.0, 0.0, 0.0, 0.0, 0.0, 0.0, 0.0)",0,0,0,,5.050000000000001e-06,-3.6200000000000005e-06,1.7820000000000002e-05,"(0.0, 0.0, 0.0, 0.0, 0.0, 0.0, 0.0, 0.0, 0.0)","$VNYMR,+065.750,+001.819,+015.944,+00.0505,-00.0362,+00.1782,+00.321,-02.717,-09.486,+00.000123,-00.000300,-00.000393*64
"
1698962799.381096,0,1698962799,351843833,GPS1_Frame,0,0,0,,0.10792369683305846,0.08848701192579188,0.535629002036516,0.8328409791549026,"(0.0, 0.0, 0.0, 0.0, 0.0, 0.0, 0.0, 0.0, 0.0)",-0.000594,0.00069,1e-06,"(0.0, 0.0, 0.0, 0.0, 0.0, 0.0, 0.0, 0.0, 0.0)",0.303,-2.684,-9.52,"(0.0, 0.0, 0.0, 0.0, 0.0, 0.0, 0.0, 0.0, 0.0)",0,0,0,,4.83e-06,-3.95e-06,1.7440000000000002e-05,"(0.0, 0.0, 0.0, 0.0, 0.0, 0.0, 0.0, 0.0, 0.0)","$VNYMR,+065.748,+001.821,+015.944,+00.0483,-00.0395,+00.1744,+00.303,-02.684,-09.520,-00.000594,+00.000690,+00.000001*67
"
1698962799.4247603,0,1698962799,375945329,GPS1_Frame,0,0,0,,0.10789873075718218,0.08847835304193888,0.5356156917525039,0.8328536940498383,"(0.0, 0.0, 0.0, 0.0, 0.0, 0.0, 0.0, 0.0, 0.0)",-0.001185,0.000197,-0.000696,"(0.0, 0.0, 0.0, 0.0, 0.0, 0.0, 0.0, 0.0, 0.0)",0.309,-2.718,-9.491,"(0.0, 0.0, 0.0, 0.0, 0.0, 0.0, 0.0, 0.0, 0.0)",0,0,0,,5.050000000000001e-06,-3.39e-06,1.7440000000000002e-05,"(0.0, 0.0, 0.0, 0.0, 0.0, 0.0, 0.0, 0.0, 0.0)","$VNYMR,+065.746,+001.822,+015.941,+00.0505,-00.0339,+00.1744,+00.309,-02.718,-09.491,-00.001185,+00.000197,-00.000696*68
"
1698962799.4247677,0,1698962799,400774240,GPS1_Frame,0,0,0,,0.10789377893202289,0.08847085428768833,0.5355946595844746,0.8328686577329977,"(0.0, 0.0, 0.0, 0.0, 0.0, 0.0, 0.0, 0.0, 0.0)",9.8e-05,-0.001217,-0.001174,"(0.0, 0.0, 0.0, 0.0, 0.0, 0.0, 0.0, 0.0, 0.0)",0.286,-2.705,-9.502,"(0.0, 0.0, 0.0, 0.0, 0.0, 0.0, 0.0, 0.0, 0.0)",0,0,0,,4.7300000000000005e-06,-3.49e-06,1.743e-05,"(0.0, 0.0, 0.0, 0.0, 0.0, 0.0, 0.0, 0.0, 0.0)","$VNYMR,+065.743,+001.822,+015.940,+00.0473,-00.0349,+00.1743,+00.286,-02.705,-09.502,+00.000098,-00.001217,-00.001174*61
"
1698962799.4683635,0,1698962799,425548315,GPS1_Frame,0,0,0,,0.10790884138974444,0.08846451429325872,0.5355659053861292,0.8328858701219012,"(0.0, 0.0, 0.0, 0.0, 0.0, 0.0, 0.0, 0.0, 0.0)",0.00135,-0.00143,-0.000926,"(0.0, 0.0, 0.0, 0.0, 0.0, 0.0, 0.0, 0.0, 0.0)",0.293,-2.709,-9.47,"(0.0, 0.0, 0.0, 0.0, 0.0, 0.0, 0.0, 0.0, 0.0)",0,0,0,,4.84e-06,-3.38e-06,1.7680000000000004e-05,"(0.0, 0.0, 0.0, 0.0, 0.0, 0.0, 0.0, 0.0, 0.0)","$VNYMR,+065.739,+001.821,+015.941,+00.0484,-00.0338,+00.1768,+00.293,-02.709,-09.470,+00.001350,-00.001430,-00.000926*6E
"
1698962799.468453,0,1698962799,450143575,GPS1_Frame,0,0,0,,0.10791063158519915,0.08847737710107127,0.5355713108104888,0.8328807960140112,"(0.0, 0.0, 0.0, 0.0, 0.0, 0.0, 0.0, 0.0, 0.0)",-0.000604,0.000935,0.00047,"(0.0, 0.0, 0.0, 0.0, 0.0, 0.0, 0.0, 0.0, 0.0)",0.321,-2.714,-9.531,"(0.0, 0.0, 0.0, 0.0, 0.0, 0.0, 0.0, 0.0, 0.0)",0,0,0,,4.62e-06,-3.72e-06,1.756e-05,"(0.0, 0.0, 0.0, 0.0, 0.0, 0.0, 0.0, 0.0, 0.0)","$VNYMR,+065.740,+001.822,+015.942,+00.0462,-00.0372,+00.1756,+00.321,-02.714,-09.531,-00.000604,+00.000935,+00.000470*6F
"
1698962799.5132518,0,1698962799,504392862,GPS1_Frame,0,0,0,,0.10790985947031827,0.08847831879561185,0.5355785790461793,0.8328761222409211,"(0.0, 0.0, 0.0, 0.0, 0.0, 0.0, 0.0, 0.0, 0.0)",-0.000279,0.000166,0.001608,"(0.0, 0.0, 0.0, 0.0, 0.0, 0.0, 0.0, 0.0, 0.0)",0.366,-2.706,-9.533,"(0.0, 0.0, 0.0, 0.0, 0.0, 0.0, 0.0, 0.0, 0.0)",0,0,0,,4.74e-06,-3.1500000000000003e-06,1.7680000000000004e-05,"(0.0, 0.0, 0.0, 0.0, 0.0, 0.0, 0.0, 0.0, 0.0)","$VNYMR,+065.741,+001.822,+015.942,+00.0474,-00.0315,+00.1768,+00.366,-02.706,-09.533,-00.000279,+00.000166,+00.001608*6B
"
1698962799.5133455,0,1698962799,475636720,GPS1_Frame,0,0,0,,0.10791063158519915,0.08847737710107127,0.5355713108104888,0.8328807960140112,"(0.0, 0.0, 0.0, 0.0, 0.0, 0.0, 0.0, 0.0, 0.0)",-0.000168,0.001658,0.000157,"(0.0, 0.0, 0.0, 0.0, 0.0, 0.0, 0.0, 0.0, 0.0)",0.315,-2.714,-9.519,"(0.0, 0.0, 0.0, 0.0, 0.0, 0.0, 0.0, 0.0, 0.0)",0,0,0,,5.15e-06,-3.6200000000000005e-06,1.77e-05,"(0.0, 0.0, 0.0, 0.0, 0.0, 0.0, 0.0, 0.0, 0.0)","$VNYMR,+065.740,+001.822,+015.942,+00.0515,-00.0362,+00.1770,+00.315,-02.714,-09.519,-00.000168,+00.001658,+00.000157*6E
"
1698962799.561088,0,1698962799,527333736,GPS1_Frame,0,0,0,,0.10790515334147315,0.08848556612243505,0.5355774881816393,0.8328766635123063,"(0.0, 0.0, 0.0, 0.0, 0.0, 0.0, 0.0, 0.0, 0.0)",0.000574,0.00084,0.000238,"(0.0, 0.0, 0.0, 0.0, 0.0, 0.0, 0.0, 0.0, 0.0)",0.331,-2.722,-9.508,"(0.0, 0.0, 0.0, 0.0, 0.0, 0.0, 0.0, 0.0, 0.0)",0,0,0,,4.94e-06,-3.7300000000000003e-06,1.756e-05,"(0.0, 0.0, 0.0, 0.0, 0.0, 0.0, 0.0, 0.0, 0.0)","$VNYMR,+065.741,+001.823,+015.942,+00.0494,-00.0373,+00.1756,+00.331,-02.722,-09.508,+00.000574,+00.000840,+00.000238*62
"
1698962799.5611122,0,1698962799,553539514,GPS1_Frame,0,0,0,,0.10790360896056901,0.0884874494091635,0.5355920245401068,0.832867315794884,"(0.0, 0.0, 0.0, 0.0, 0.0, 0.0, 0.0, 0.0, 0.0)",-0.001026,-0.000548,9.2e-05,"(0.0, 0.0, 0.0, 0.0, 0.0, 0.0, 0.0, 0.0, 0.0)",0.333,-2.745,-9.504,"(0.0, 0.0, 0.0, 0.0, 0.0, 0.0, 0.0, 0.0, 0.0)",0,0,0,,4.83e-06,-3.61e-06,1.794e-05,"(0.0, 0.0, 0.0, 0.0, 0.0, 0.0, 0.0, 0.0, 0.0)","$VNYMR,+065.743,+001.823,+015.942,+00.0483,-00.0361,+00.1794,+00.333,-02.745,-09.504,-00.001026,-00.000548,+00.000092*60
"
1698962799.6011908,0,1698962799,575207710,GPS1_Frame,0,0,0,,0.10791575596040603,0.08850121926131119,0.5355675844750795,0.8328799951159133,"(0.0, 0.0, 0.0, 0.0, 0.0, 0.0, 0.0, 0.0, 0.0)",-0.000637,-0.001053,-0.00036,"(0.0, 0.0, 0.0, 0.0, 0.0, 0.0, 0.0, 0.0, 0.0)",0.33,-2.727,-9.48,"(0.0, 0.0, 0.0, 0.0, 0.0, 0.0, 0.0, 0.0, 0.0)",0,0,0,,4.950000000000001e-06,-3.38e-06,1.756e-05,"(0.0, 0.0, 0.0, 0.0, 0.0, 0.0, 0.0, 0.0, 0.0)","$VNYMR,+065.740,+001.824,+015.944,+00.0495,-00.0338,+00.1756,+00.330,-02.727,-09.480,-00.000637,-00.001053,-00.000360*6C
"
1698962799.614537,0,1698962799,601359605,GPS1_Frame,0,0,0,,0.10791986296681738,0.08851125674919395,0.5355511844225134,0.8328889418581235,"(0.0, 0.0, 0.0, 0.0, 0.0, 0.0, 0.0, 0.0, 0.0)",0.000134,-0.001403,-0.001562,"(0.0, 0.0, 0.0, 0.0, 0.0, 0.0, 0.0, 0.0, 0.0)",0.313,-2.717,-9.479,"(0.0, 0.0, 0.0, 0.0, 0.0, 0.0, 0.0, 0.0, 0.0)",0,0,0,,4.83e-06,-3.95e-06,1.7440000000000002e-05,"(0.0, 0.0, 0.0, 0.0, 0.0, 0.0, 0.0, 0.0, 0.0)","$VNYMR,+065.738,+001.825,+015.945,+00.0483,-00.0395,+00.1744,+00.313,-02.717,-09.479,+00.000134,-00.001403,-00.001562*62
"
1698962799.65238,0,1698962799,626259088,GPS1_Frame,0,0,0,,0.10791909055628042,0.08851219852429221,0.5355584527292903,0.832884268260669,"(0.0, 0.0, 0.0, 0.0, 0.0, 0.0, 0.0, 0.0, 0.0)",8e-05,-0.000214,-0.000216,"(0.0, 0.0, 0.0, 0.0, 0.0, 0.0, 0.0, 0.0, 0.0)",0.298,-2.713,-9.533,"(0.0, 0.0, 0.0, 0.0, 0.0, 0.0, 0.0, 0.0, 0.0)",0,0,0,,5.04e-06,-3.7300000000000003e-06,1.7690000000000002e-05,"(0.0, 0.0, 0.0, 0.0, 0.0, 0.0, 0.0, 0.0, 0.0)","$VNYMR,+065.739,+001.825,+015.945,+00.0504,-00.0373,+00.1769,+00.298,-02.713,-09.533,+00.000080,-00.000214,-00.000216*69
"
1698962799.697191,0,1698962799,652610540,GPS1_Frame,0,0,0,,0.10791259463553873,0.08850658318008318,0.5355519568085487,0.8328898836048781,"(0.0, 0.0, 0.0, 0.0, 0.0, 0.0, 0.0, 0.0, 0.0)",0.000821,-0.000441,0.000208,"(0.0, 0.0, 0.0, 0.0, 0.0, 0.0, 0.0, 0.0, 0.0)",0.25,-2.707,-9.507,"(0.0, 0.0, 0.0, 0.0, 0.0, 0.0, 0.0, 0.0, 0.0)",0,0,0,,5.2600000000000005e-06,-3.7400000000000006e-06,1.732e-05,"(0.0, 0.0, 0.0, 0.0, 0.0, 0.0, 0.0, 0.0, 0.0)","$VNYMR,+065.738,+001.825,+015.944,+00.0526,-00.0374,+00.1732,+00.250,-02.707,-09.507,+00.000821,-00.000441,+00.000208*6A
"
1698962799.6972525,0,1698962799,675644159,GPS1_Frame,0,0,0,,0.10789883022829327,0.08849629443008795,0.5355462330860505,0.8328964404623486,"(0.0, 0.0, 0.0, 0.0, 0.0, 0.0, 0.0, 0.0, 0.0)",-0.000585,-0.000477,0.000353,"(0.0, 0.0, 0.0, 0.0, 0.0, 0.0, 0.0, 0.0, 0.0)",0.29,-2.704,-9.555,"(0.0, 0.0, 0.0, 0.0, 0.0, 0.0, 0.0, 0.0, 0.0)",0,0,0,,5.050000000000001e-06,-3.6200000000000005e-06,1.7820000000000002e-05,"(0.0, 0.0, 0.0, 0.0, 0.0, 0.0, 0.0, 0.0, 0.0)","$VNYMR,+065.737,+001.825,+015.942,+00.0505,-00.0362,+00.1782,+00.290,-02.704,-09.555,-00.000585,-00.000477,+00.000353*69
"
1698962799.741925,0,1698962799,701084375,GPS1_Frame,0,0,0,,0.10789078959239698,0.08849256243231135,0.535554273721947,0.8328927084645719,"(0.0, 0.0, 0.0, 0.0, 0.0, 0.0, 0.0, 0.0, 0.0)",-0.000671,-6.6e-05,0.000599,"(0.0, 0.0, 0.0, 0.0, 0.0, 0.0, 0.0, 0.0, 0.0)",0.305,-2.716,-9.504,"(0.0, 0.0, 0.0, 0.0, 0.0, 0.0, 0.0, 0.0, 0.0)",0,0,0,,4.94e-06,-3.61e-06,1.756e-05,"(0.0, 0.0, 0.0, 0.0, 0.0, 0.0, 0.0, 0.0, 0.0)","$VNYMR,+065.738,+001.825,+015.941,+00.0494,-00.0361,+00.1756,+00.305,-02.716,-09.504,-00.000671,-00.000066,+00.000599*60
"
1698962799.7420156,0,1698962799,725423574,GPS1_Frame,0,0,0,,0.10789651336374677,0.08849911918453023,0.5355680380803406,0.8328824196093251,"(0.0, 0.0, 0.0, 0.0, 0.0, 0.0, 0.0, 0.0, 0.0)",3.6e-05,0.000961,0.000448,"(0.0, 0.0, 0.0, 0.0, 0.0, 0.0, 0.0, 0.0, 0.0)",0.313,-2.73,-9.496,"(0.0, 0.0, 0.0, 0.0, 0.0, 0.0, 0.0, 0.0, 0.0)",0,0,0,,5.04e-06,-3.84e-06,1.719e-05,"(0.0, 0.0, 0.0, 0.0, 0.0, 0.0, 0.0, 0.0, 0.0)","$VNYMR,+065.740,+001.825,+015.942,+00.0504,-00.0384,+00.1719,+00.313,-02.730,-09.496,+00.000036,+00.000961,+00.000448*6B
"
1698962799.7844095,0,1698962799,750586032,GPS1_Frame,0,0,0,,0.10789574105913094,0.08850006075586524,0.5355753063301998,0.8328777458647949,"(0.0, 0.0, 0.0, 0.0, 0.0, 0.0, 0.0, 0.0, 0.0)",-0.000386,0.000371,-0.000257,"(0.0, 0.0, 0.0, 0.0, 0.0, 0.0, 0.0, 0.0, 0.0)",0.339,-2.733,-9.517,"(0.0, 0.0, 0.0, 0.0, 0.0, 0.0, 0.0, 0.0, 0.0)",0,0,0,,4.950000000000001e-06,-3.04e-06,1.743e-05,"(0.0, 0.0, 0.0, 0.0, 0.0, 0.0, 0.0, 0.0, 0.0)","$VNYMR,+065.741,+001.825,+015.942,+00.0495,-00.0304,+00.1743,+00.339,-02.733,-09.517,-00.000386,+00.000371,-00.000257*6C
"
1698962799.7874732,0,1698962799,776520252,GPS1_Frame,0,0,0,,0.10789907554436076,0.08851104023213041,0.5355661747045741,0.8328820191155577,"(0.0, 0.0, 0.0, 0.0, 0.0, 0.0, 0.0, 0.0, 0.0)",-0.000251,-0.000484,0.000621,"(0.0, 0.0, 0.0, 0.0, 0.0, 0.0, 0.0, 0.0, 0.0)",0.335,-2.73,-9.508,"(0.0, 0.0, 0.0, 0.0, 0.0, 0.0, 0.0, 0.0, 0.0)",0,0,0,,4.950000000000001e-06,-3.27e-06,1.781e-05,"(0.0, 0.0, 0.0, 0.0, 0.0, 0.0, 0.0, 0.0, 0.0)","$VNYMR,+065.740,+001.826,+015.943,+00.0495,-00.0327,+00.1781,+00.335,-02.730,-09.508,-00.000251,-00.000484,+00.000621*62
"
1698962799.8300729,0,1698962799,802204847,GPS1_Frame,0,0,0,,0.10789907554436076,0.08851104023213041,0.5355661747045741,0.8328820191155577,"(0.0, 0.0, 0.0, 0.0, 0.0, 0.0, 0.0, 0.0, 0.0)",-0.000439,0.000809,-0.000442,"(0.0, 0.0, 0.0, 0.0, 0.0, 0.0, 0.0, 0.0, 0.0)",0.359,-2.723,-9.488,"(0.0, 0.0, 0.0, 0.0, 0.0, 0.0, 0.0, 0.0, 0.0)",0,0,0,,5.04e-06,-3.84e-06,1.808e-05,"(0.0, 0.0, 0.0, 0.0, 0.0, 0.0, 0.0, 0.0, 0.0)","$VNYMR,+065.740,+001.826,+015.943,+00.0504,-00.0384,+00.1808,+00.359,-02.723,-09.488,-00.000439,+00.000809,-00.000442*6B
"
1698962799.8736942,0,1698962799,825747966,GPS1_Frame,0,0,0,,0.10789436945061417,0.08851828756354345,0.5355650836089222,0.8328825601647811,"(0.0, 0.0, 0.0, 0.0, 0.0, 0.0, 0.0, 0.0, 0.0)",-0.000796,-0.001102,-0.001145,"(0.0, 0.0, 0.0, 0.0, 0.0, 0.0, 0.0, 0.0, 0.0)",0.308,-2.722,-9.496,"(0.0, 0.0, 0.0, 0.0, 0.0, 0.0, 0.0, 0.0, 0.0)",0,0,0,,4.970000000000001e-06,-2.59e-06,1.73e-05,"(0.0, 0.0, 0.0, 0.0, 0.0, 0.0, 0.0, 0.0, 0.0)","$VNYMR,+065.740,+001.827,+015.943,+00.0497,-00.0259,+00.1730,+00.308,-02.722,-09.496,-00.000796,-00.001102,-00.001145*6E
"
1698962799.873786,0,1698962799,851834058,GPS1_Frame,0,0,0,,0.10790609861679179,0.08850096794925019,0.5355454607898017,0.8328954988357109,"(0.0, 0.0, 0.0, 0.0, 0.0, 0.0, 0.0, 0.0, 0.0)",0.000495,0.000801,-0.000179,"(0.0, 0.0, 0.0, 0.0, 0.0, 0.0, 0.0, 0.0, 0.0)",0.287,-2.692,-9.513,"(0.0, 0.0, 0.0, 0.0, 0.0, 0.0, 0.0, 0.0, 0.0)",0,0,0,,4.83e-06,-3.84e-06,1.7690000000000002e-05,"(0.0, 0.0, 0.0, 0.0, 0.0, 0.0, 0.0, 0.0, 0.0)","$VNYMR,+065.737,+001.825,+015.943,+00.0483,-00.0384,+00.1769,+00.287,-02.692,-09.513,+00.000495,+00.000801,-00.000179*61
"
1698962799.9176934,0,1698962799,875360727,GPS1_Frame,0,0,0,,0.10790353612059109,0.08848904695247135,0.5355473240510524,0.8328958993558995,"(0.0, 0.0, 0.0, 0.0, 0.0, 0.0, 0.0, 0.0, 0.0)",-0.000127,1.2e-05,0.000216,"(0.0, 0.0, 0.0, 0.0, 0.0, 0.0, 0.0, 0.0, 0.0)",0.272,-2.711,-9.545,"(0.0, 0.0, 0.0, 0.0, 0.0, 0.0, 0.0, 0.0, 0.0)",0,0,0,,4.84e-06,-3.38e-06,1.7680000000000004e-05,"(0.0, 0.0, 0.0, 0.0, 0.0, 0.0, 0.0, 0.0, 0.0)","$VNYMR,+065.737,+001.824,+015.942,+00.0484,-00.0338,+00.1768,+00.272,-02.711,-09.545,-00.000127,+00.000012,+00.000216*6F
"
1698962799.9177759,0,1698962799,899910211,GPS1_Frame,0,0,0,,0.10789942938380614,0.08847900913695411,0.5355637238054325,0.8328869526078857,"(0.0, 0.0, 0.0, 0.0, 0.0, 0.0, 0.0, 0.0, 0.0)",-0.000596,-4.8e-05,0.000498,"(0.0, 0.0, 0.0, 0.0, 0.0, 0.0, 0.0, 0.0, 0.0)",0.28,-2.701,-9.546,"(0.0, 0.0, 0.0, 0.0, 0.0, 0.0, 0.0, 0.0, 0.0)",0,0,0,,5.050000000000001e-06,-3.5000000000000004e-06,1.7440000000000002e-05,"(0.0, 0.0, 0.0, 0.0, 0.0, 0.0, 0.0, 0.0, 0.0)","$VNYMR,+065.739,+001.823,+015.941,+00.0505,-00.0350,+00.1744,+00.280,-02.701,-09.546,-00.000596,-00.000048,+00.000498*65
"
1698962799.962246,0,1698962799,926212310,GPS1_Frame,0,0,0,,0.10789532302328901,0.08846897117252876,0.5355801232025855,0.8328780054964098,"(0.0, 0.0, 0.0, 0.0, 0.0, 0.0, 0.0, 0.0, 0.0)",0.00077,0.000255,0.00023,"(0.0, 0.0, 0.0, 0.0, 0.0, 0.0, 0.0, 0.0, 0.0)",0.311,-2.722,-9.505,"(0.0, 0.0, 0.0, 0.0, 0.0, 0.0, 0.0, 0.0, 0.0)",0,0,0,,5.04e-06,-3.84e-06,1.732e-05,"(0.0, 0.0, 0.0, 0.0, 0.0, 0.0, 0.0, 0.0, 0.0)","$VNYMR,+065.741,+001.822,+015.940,+00.0504,-00.0384,+00.1732,+00.311,-02.722,-09.505,+00.000770,+00.000255,+00.000230*6C
"
1698962799.9623613,0,1698962799,951154708,GPS1_Frame,0,0,0,,0.10790181916860052,0.08847458661181469,0.5355866193478971,0.8328723900571238,"(0.0, 0.0, 0.0, 0.0, 0.0, 0.0, 0.0, 0.0, 0.0)",-0.000436,0.000231,0.001022,"(0.0, 0.0, 0.0, 0.0, 0.0, 0.0, 0.0, 0.0, 0.0)",0.305,-2.75,-9.533,"(0.0, 0.0, 0.0, 0.0, 0.0, 0.0, 0.0, 0.0, 0.0)",0,0,0,,4.84e-06,-3.5000000000000004e-06,1.756e-05,"(0.0, 0.0, 0.0, 0.0, 0.0, 0.0, 0.0, 0.0, 0.0)","$VNYMR,+065.742,+001.822,+015.941,+00.0484,-00.0350,+00.1756,+00.305,-02.750,-09.533,-00.000436,+00.000231,+00.001022*6C
"
1698962800.0049405,0,1698962799,977121353,GPS1_Frame,0,0,0,,0.10790831521590312,0.08848020216447885,0.5355931153951996,0.8328667745044598,"(0.0, 0.0, 0.0, 0.0, 0.0, 0.0, 0.0, 0.0, 0.0)",-0.00049,0.002023,0.00075,"(0.0, 0.0, 0.0, 0.0, 0.0, 0.0, 0.0, 0.0, 0.0)",0.338,-2.721,-9.508,"(0.0, 0.0, 0.0, 0.0, 0.0, 0.0, 0.0, 0.0, 0.0)",0,0,0,,4.7300000000000005e-06,-3.61e-06,1.743e-05,"(0.0, 0.0, 0.0, 0.0, 0.0, 0.0, 0.0, 0.0, 0.0)","$VNYMR,+065.743,+001.822,+015.942,+00.0473,-00.0361,+00.1743,+00.338,-02.721,-09.508,-00.000490,+00.002023,+00.000750*6C
"
1698962800.0485168,0,1698962800,745773,GPS1_Frame,0,0,0,,0.1079059987726479,0.08848302716724302,0.5356149196128206,0.8328527524240705,"(0.0, 0.0, 0.0, 0.0, 0.0, 0.0, 0.0, 0.0, 0.0)",0.000227,-0.000105,0.00159,"(0.0, 0.0, 0.0, 0.0, 0.0, 0.0, 0.0, 0.0, 0.0)",0.335,-2.724,-9.518,"(0.0, 0.0, 0.0, 0.0, 0.0, 0.0, 0.0, 0.0, 0.0)",0,0,0,,4.62e-06,-3.61e-06,1.781e-05,"(0.0, 0.0, 0.0, 0.0, 0.0, 0.0, 0.0, 0.0, 0.0)","$VNYMR,+065.746,+001.822,+015.942,+00.0462,-00.0361,+00.1781,+00.335,-02.724,-09.518,+00.000227,-00.000105,+00.001590*6C
"
1698962800.0485373,0,1698962800,26238441,GPS1_Frame,0,0,0,,0.10789873075718218,0.08847835304193888,0.5356156917525039,0.8328536940498383,"(0.0, 0.0, 0.0, 0.0, 0.0, 0.0, 0.0, 0.0, 0.0)",0.000517,-1.2e-05,-0.000413,"(0.0, 0.0, 0.0, 0.0, 0.0, 0.0, 0.0, 0.0, 0.0)",0.307,-2.727,-9.524,"(0.0, 0.0, 0.0, 0.0, 0.0, 0.0, 0.0, 0.0, 0.0)",0,0,0,,5.15e-06,-3.5000000000000004e-06,1.7820000000000002e-05,"(0.0, 0.0, 0.0, 0.0, 0.0, 0.0, 0.0, 0.0, 0.0)","$VNYMR,+065.746,+001.822,+015.941,+00.0515,-00.0350,+00.1782,+00.307,-02.727,-09.524,+00.000517,-00.000012,-00.000413*6C
"
1698962800.0927699,0,1698962800,55170297,GPS1_Frame,0,0,0,,0.10790420925069064,0.08847016426571369,0.5356095144541482,0.8328578268149808,"(0.0, 0.0, 0.0, 0.0, 0.0, 0.0, 0.0, 0.0, 0.0)",0.000706,0.00052,4.7e-05,"(0.0, 0.0, 0.0, 0.0, 0.0, 0.0, 0.0, 0.0, 0.0)",0.336,-2.717,-9.523,"(0.0, 0.0, 0.0, 0.0, 0.0, 0.0, 0.0, 0.0, 0.0)",0,0,0,,5.050000000000001e-06,-3.6200000000000005e-06,1.7690000000000002e-05,"(0.0, 0.0, 0.0, 0.0, 0.0, 0.0, 0.0, 0.0, 0.0)","$VNYMR,+065.745,+001.821,+015.941,+00.0505,-00.0362,+00.1769,+00.336,-02.717,-09.523,+00.000706,+00.000520,+00.000047*6C
"
