Time,Header.seq,Header.stamp.secs,Header.stamp.nsecs,Header.frame_id,imu.header.seq,imu.header.stamp.secs,imu.header.stamp.nsecs,imu.header.frame_id,imu.orientation.x,imu.orientation.y,imu.orientation.z,imu.orientation.w,imu.orientation_covariance,imu.angular_velocity.x,imu.angular_velocity.y,imu.angular_velocity.z,imu.angular_velocity_covariance,imu.linear_acceleration.x,imu.linear_acceleration.y,imu.linear_acceleration.z,imu.linear_acceleration_covariance,mag_field.header.seq,mag_field.header.stamp.secs,mag_field.header.stamp.nsecs,mag_field.header.frame_id,mag_field.magnetic_field.x,mag_field.magnetic_field.y,mag_field.magnetic_field.z,mag_field.magnetic_field_covariance,Raw
1679334426.161081,5047,1679334426,15136718,imu1_frame,0,0,0,,0.006803406848195234,0.01432172818858152,-0.6592132900414789,0.7517888267257229,"(0.0, 0.0, 0.0, 0.0, 0.0, 0.0, 0.0, 0.0, 0.0)",-0.000964,0.000732,-0.000755,"(0.0, 0.0, 0.0, 0.0, 0.0, 0.0, 0.0, 0.0, 0.0)",0.264,0.063,-9.646,"(0.0, 0.0, 0.0, 0.0, 0.0, 0.0, 0.0, 0.0, 0.0)",0,0,0,,0.0251,0.3717,0.6448,"(0.0, 0.0, 0.0, 0.0, 0.0, 0.0, 0.0, 0.0, 0.0)","$VNYMR,-082.500,+001.748,-000.496,+00.0251,+00.3717,+00.6448,+00.264,+00.063,-09.646,-00.000964,+00.000732,-00.000755*6E"
1679334426.179762,5048,1679334426,17597794,imu1_frame,0,0,0,,0.0068162209763774784,0.0143222973804098,-0.6592395408415008,0.7517656807280015,"(0.0, 0.0, 0.0, 0.0, 0.0, 0.0, 0.0, 0.0, 0.0)",-0.00012,-0.000893,-0.000569,"(0.0, 0.0, 0.0, 0.0, 0.0, 0.0, 0.0, 0.0, 0.0)",0.256,0.052,-9.77,"(0.0, 0.0, 0.0, 0.0, 0.0, 0.0, 0.0, 0.0, 0.0)",0,0,0,,0.0418,0.3667,0.6478,"(0.0, 0.0, 0.0, 0.0, 0.0, 0.0, 0.0, 0.0, 0.0)","$VNYMR,-082.504,+001.749,-000.495,+00.0418,+00.3667,+00.6478,+00.256,+00.052,-09.770,-00.000120,-00.000893,-00.000569*66"
1679334426.2093241,5049,1679334426,20126366,imu1_frame,0,0,0,,0.0068085352395089345,0.014328585115437545,-0.6591803702544121,0.7518175144060811,"(0.0, 0.0, 0.0, 0.0, 0.0, 0.0, 0.0, 0.0, 0.0)",-0.001434,0.000329,-0.000532,"(0.0, 0.0, 0.0, 0.0, 0.0, 0.0, 0.0, 0.0, 0.0)",0.357,0.056,-9.688,"(0.0, 0.0, 0.0, 0.0, 0.0, 0.0, 0.0, 0.0, 0.0)",0,0,0,,0.0251,0.3717,0.6473,"(0.0, 0.0, 0.0, 0.0, 0.0, 0.0, 0.0, 0.0, 0.0)","$VNYMR,-082.495,+001.749,-000.496,+00.0251,+00.3717,+00.6473,+00.357,+00.056,-09.688,-00.001434,+00.000329,-00.000532*6B"
1679334426.229984,5050,1679334426,22578716,imu1_frame,0,0,0,,0.006795413547472057,0.014340089981080047,-0.659180120073026,0.7518176331229302,"(0.0, 0.0, 0.0, 0.0, 0.0, 0.0, 0.0, 0.0, 0.0)",-0.0012,0.001362,-0.000386,"(0.0, 0.0, 0.0, 0.0, 0.0, 0.0, 0.0, 0.0, 0.0)",0.241,0.086,-9.693,"(0.0, 0.0, 0.0, 0.0, 0.0, 0.0, 0.0, 0.0, 0.0)",0,0,0,,0.021,0.3786,0.6458,"(0.0, 0.0, 0.0, 0.0, 0.0, 0.0, 0.0, 0.0, 0.0)","$VNYMR,-082.495,+001.749,-000.498,+00.0210,+00.3786,+00.6458,+00.241,+00.086,-09.693,-00.001200,+00.001362,-00.000386*66"
1679334426.2574923,5051,1679334426,25111055,imu1_frame,0,0,0,,0.006801292047216023,0.014346590711900427,-0.6591865645453242,0.7518118054968058,"(0.0, 0.0, 0.0, 0.0, 0.0, 0.0, 0.0, 0.0, 0.0)",-7.5e-05,-0.000524,-0.000906,"(0.0, 0.0, 0.0, 0.0, 0.0, 0.0, 0.0, 0.0, 0.0)",0.303,0.025,-9.747,"(0.0, 0.0, 0.0, 0.0, 0.0, 0.0, 0.0, 0.0, 0.0)",0,0,0,,0.0439,0.3666,0.6479,"(0.0, 0.0, 0.0, 0.0, 0.0, 0.0, 0.0, 0.0, 0.0)","$VNYMR,-082.496,+001.750,-000.498,+00.0439,+00.3666,+00.6479,+00.303,+00.025,-09.747,-00.000075,-00.000524,-00.000906*6A"
1679334426.2800953,5052,1679334426,27568459,imu1_frame,0,0,0,,0.006794731251276493,0.01435234319932219,-0.659186439322602,0.7518118648206487,"(0.0, 0.0, 0.0, 0.0, 0.0, 0.0, 0.0, 0.0, 0.0)",-0.001802,0.000886,-0.001511,"(0.0, 0.0, 0.0, 0.0, 0.0, 0.0, 0.0, 0.0, 0.0)",0.267,0.098,-9.648,"(0.0, 0.0, 0.0, 0.0, 0.0, 0.0, 0.0, 0.0, 0.0)",0,0,0,,0.0208,0.3718,0.6434,"(0.0, 0.0, 0.0, 0.0, 0.0, 0.0, 0.0, 0.0, 0.0)","$VNYMR,-082.496,+001.750,-000.499,+00.0208,+00.3718,+00.6434,+00.267,+00.098,-09.648,-00.001802,+00.000886,-00.001511*64"
1679334426.3073556,5053,1679334426,30132484,imu1_frame,0,0,0,,0.006788421049829631,0.01435797720753948,-0.6591994355427105,0.7518004190011667,"(0.0, 0.0, 0.0, 0.0, 0.0, 0.0, 0.0, 0.0, 0.0)",-0.001336,0.002622,-0.001253,"(0.0, 0.0, 0.0, 0.0, 0.0, 0.0, 0.0, 0.0, 0.0)",0.282,0.081,-9.704,"(0.0, 0.0, 0.0, 0.0, 0.0, 0.0, 0.0, 0.0, 0.0)",0,0,0,,0.044,0.3678,0.6479,"(0.0, 0.0, 0.0, 0.0, 0.0, 0.0, 0.0, 0.0, 0.0)","$VNYMR,-082.498,+001.750,-000.500,+00.0440,+00.3678,+00.6479,+00.282,+00.081,-09.704,-00.001336,+00.002622,-00.001253*6A"
1679334426.3489344,5054,1679334426,32581257,imu1_frame,0,0,0,,0.006794480754597404,0.014352461787568322,-0.6591733176298062,0.7518233696798913,"(0.0, 0.0, 0.0, 0.0, 0.0, 0.0, 0.0, 0.0, 0.0)",0.001281,-0.001468,-0.000919,"(0.0, 0.0, 0.0, 0.0, 0.0, 0.0, 0.0, 0.0, 0.0)",0.266,0.04,-9.755,"(0.0, 0.0, 0.0, 0.0, 0.0, 0.0, 0.0, 0.0, 0.0)",0,0,0,,0.0229,0.3706,0.6447,"(0.0, 0.0, 0.0, 0.0, 0.0, 0.0, 0.0, 0.0, 0.0)","$VNYMR,-082.494,+001.750,-000.499,+00.0229,+00.3706,+00.6447,+00.266,+00.040,-09.755,+00.001281,-00.001468,-00.000919*6E"
1679334426.3922446,5055,1679334426,35166430,imu1_frame,0,0,0,,0.006800860523401855,0.014358725188558763,-0.6592060050267421,0.7517945319326176,"(0.0, 0.0, 0.0, 0.0, 0.0, 0.0, 0.0, 0.0, 0.0)",0.000167,0.000248,-0.000174,"(0.0, 0.0, 0.0, 0.0, 0.0, 0.0, 0.0, 0.0, 0.0)",0.32,0.113,-9.665,"(0.0, 0.0, 0.0, 0.0, 0.0, 0.0, 0.0, 0.0, 0.0)",0,0,0,,0.0397,0.3667,0.6491,"(0.0, 0.0, 0.0, 0.0, 0.0, 0.0, 0.0, 0.0, 0.0)","$VNYMR,-082.499,+001.751,-000.499,+00.0397,+00.3667,+00.6491,+00.320,+00.113,-09.665,+00.000167,+00.000248,-00.000174*67"
1679334426.392358,5056,1679334426,37622141,imu1_frame,0,0,0,,0.006794355505481708,0.014352521080051887,-0.6591667567081095,0.751829122023631,"(0.0, 0.0, 0.0, 0.0, 0.0, 0.0, 0.0, 0.0, 0.0)",4.4e-05,0.000892,0.00152,"(0.0, 0.0, 0.0, 0.0, 0.0, 0.0, 0.0, 0.0, 0.0)",0.254,0.088,-9.688,"(0.0, 0.0, 0.0, 0.0, 0.0, 0.0, 0.0, 0.0, 0.0)",0,0,0,,0.0356,0.3703,0.6476,"(0.0, 0.0, 0.0, 0.0, 0.0, 0.0, 0.0, 0.0, 0.0)","$VNYMR,-082.493,+001.750,-000.499,+00.0356,+00.3703,+00.6476,+00.254,+00.088,-09.688,+00.000044,+00.000892,+00.001520*66"
1679334426.4368663,5057,1679334426,40139269,imu1_frame,0,0,0,,0.006813355790196697,0.014347517173522603,-0.6591734516863452,0.7518231757040622,"(0.0, 0.0, 0.0, 0.0, 0.0, 0.0, 0.0, 0.0, 0.0)",0.000719,-0.001286,-0.000405,"(0.0, 0.0, 0.0, 0.0, 0.0, 0.0, 0.0, 0.0, 0.0)",0.277,0.027,-9.739,"(0.0, 0.0, 0.0, 0.0, 0.0, 0.0, 0.0, 0.0, 0.0)",0,0,0,,0.0239,0.3683,0.6486,"(0.0, 0.0, 0.0, 0.0, 0.0, 0.0, 0.0, 0.0, 0.0)","$VNYMR,-082.494,+001.751,-000.497,+00.0239,+00.3683,+00.6486,+00.277,+00.027,-09.739,+00.000719,-00.001286,-00.000405*69"
1679334426.4369237,5058,1679334426,42569684,imu1_frame,0,0,0,,0.006812297511266215,0.014359948576486446,-0.6591600881173854,0.7518346644792188,"(0.0, 0.0, 0.0, 0.0, 0.0, 0.0, 0.0, 0.0, 0.0)",-0.00048,0.00014,0.001017,"(0.0, 0.0, 0.0, 0.0, 0.0, 0.0, 0.0, 0.0, 0.0)",0.302,0.096,-9.696,"(0.0, 0.0, 0.0, 0.0, 0.0, 0.0, 0.0, 0.0, 0.0)",0,0,0,,0.0273,0.375,0.646,"(0.0, 0.0, 0.0, 0.0, 0.0, 0.0, 0.0, 0.0, 0.0)","$VNYMR,-082.492,+001.752,-000.498,+00.0273,+00.3750,+00.6460,+00.302,+00.096,-09.696,-00.000480,+00.000140,+00.001017*6C"
1679334426.4806936,5059,1679334426,45227432,imu1_frame,0,0,0,,0.006819040583560627,0.014342181377683689,-0.6591276493764102,0.7518633814373309,"(0.0, 0.0, 0.0, 0.0, 0.0, 0.0, 0.0, 0.0, 0.0)",0.000621,0.00202,-0.000189,"(0.0, 0.0, 0.0, 0.0, 0.0, 0.0, 0.0, 0.0, 0.0)",0.235,0.034,-9.624,"(0.0, 0.0, 0.0, 0.0, 0.0, 0.0, 0.0, 0.0, 0.0)",0,0,0,,0.0282,0.3716,0.6449,"(0.0, 0.0, 0.0, 0.0, 0.0, 0.0, 0.0, 0.0, 0.0)","$VNYMR,-082.487,+001.751,-000.496,+00.0282,+00.3716,+00.6449,+00.235,+00.034,-09.624,+00.000621,+00.002020,-00.000189*6D"
1679334426.4807858,5060,1679334426,47560667,imu1_frame,0,0,0,,0.006837540563899342,0.014337416925393111,-0.6591080994216063,0.751880442485228,"(0.0, 0.0, 0.0, 0.0, 0.0, 0.0, 0.0, 0.0, 0.0)",0.000242,-0.000391,9e-05,"(0.0, 0.0, 0.0, 0.0, 0.0, 0.0, 0.0, 0.0, 0.0)",0.303,-0.025,-9.717,"(0.0, 0.0, 0.0, 0.0, 0.0, 0.0, 0.0, 0.0, 0.0)",0,0,0,,0.0366,0.3714,0.6527,"(0.0, 0.0, 0.0, 0.0, 0.0, 0.0, 0.0, 0.0, 0.0)","$VNYMR,-082.484,+001.752,-000.494,+00.0366,+00.3714,+00.6527,+00.303,-00.025,-09.717,+00.000242,-00.000391,+00.000090*6F"
1679334426.524687,5061,1679334426,50200581,imu1_frame,0,0,0,,0.006818164456833975,0.014342597902409087,-0.659081719426291,0.7519036438513468,"(0.0, 0.0, 0.0, 0.0, 0.0, 0.0, 0.0, 0.0, 0.0)",-0.001916,0.001845,-0.000914,"(0.0, 0.0, 0.0, 0.0, 0.0, 0.0, 0.0, 0.0, 0.0)",0.254,0.09,-9.684,"(0.0, 0.0, 0.0, 0.0, 0.0, 0.0, 0.0, 0.0, 0.0)",0,0,0,,0.0062,0.3767,0.6454,"(0.0, 0.0, 0.0, 0.0, 0.0, 0.0, 0.0, 0.0, 0.0)","$VNYMR,-082.480,+001.751,-000.496,+00.0062,+00.3767,+00.6454,+00.254,+00.090,-09.684,-00.001916,+00.001845,-00.000914*67"
1679334426.5294096,5062,1679334426,52559638,imu1_frame,0,0,0,,0.006812537120829954,0.014335977615622476,-0.6590883972732994,0.7518979675883524,"(0.0, 0.0, 0.0, 0.0, 0.0, 0.0, 0.0, 0.0, 0.0)",-0.000409,0.001953,-1e-05,"(0.0, 0.0, 0.0, 0.0, 0.0, 0.0, 0.0, 0.0, 0.0)",0.244,0.067,-9.68,"(0.0, 0.0, 0.0, 0.0, 0.0, 0.0, 0.0, 0.0, 0.0)",0,0,0,,0.0251,0.3728,0.6473,"(0.0, 0.0, 0.0, 0.0, 0.0, 0.0, 0.0, 0.0, 0.0)","$VNYMR,-082.481,+001.750,-000.496,+00.0251,+00.3728,+00.6473,+00.244,+00.067,-09.680,-00.000409,+00.001953,-00.000010*6F"
1679334426.57409,5063,1679334426,55173206,imu1_frame,0,0,0,,0.006832596622196021,0.014318543844766048,-0.6591084567746656,0.7518805338174959,"(0.0, 0.0, 0.0, 0.0, 0.0, 0.0, 0.0, 0.0, 0.0)",0.001547,-0.001056,3.9e-05,"(0.0, 0.0, 0.0, 0.0, 0.0, 0.0, 0.0, 0.0, 0.0)",0.24,0.009,-9.726,"(0.0, 0.0, 0.0, 0.0, 0.0, 0.0, 0.0, 0.0, 0.0)",0,0,0,,0.0441,0.3723,0.6504,"(0.0, 0.0, 0.0, 0.0, 0.0, 0.0, 0.0, 0.0, 0.0)","$VNYMR,-082.484,+001.750,-000.493,+00.0441,+00.3723,+00.6504,+00.240,+00.009,-09.726,+00.001547,-00.001056,+00.000039*68"
1679334426.6173065,5064,1679334426,57564973,imu1_frame,0,0,0,,0.006826410233331463,0.014324116940476818,-0.6591280157587318,0.7518633377410808,"(0.0, 0.0, 0.0, 0.0, 0.0, 0.0, 0.0, 0.0, 0.0)",-0.000962,0.000641,-0.000787,"(0.0, 0.0, 0.0, 0.0, 0.0, 0.0, 0.0, 0.0, 0.0)",0.273,0.088,-9.688,"(0.0, 0.0, 0.0, 0.0, 0.0, 0.0, 0.0, 0.0, 0.0)",0,0,0,,-0.0138,0.3783,0.641,"(0.0, 0.0, 0.0, 0.0, 0.0, 0.0, 0.0, 0.0, 0.0)","$VNYMR,-082.487,+001.750,-000.494,-00.0138,+00.3783,+00.6410,+00.273,+00.088,-09.688,-00.000962,+00.000641,-00.000787*6C"
1679334426.6173892,5065,1679334426,60191535,imu1_frame,0,0,0,,0.006813846155859022,0.014323427355768832,-0.6591148843101009,0.7518749764490308,"(0.0, 0.0, 0.0, 0.0, 0.0, 0.0, 0.0, 0.0, 0.0)",-0.000475,0.00175,-0.000601,"(0.0, 0.0, 0.0, 0.0, 0.0, 0.0, 0.0, 0.0, 0.0)",0.245,0.072,-9.702,"(0.0, 0.0, 0.0, 0.0, 0.0, 0.0, 0.0, 0.0, 0.0)",0,0,0,,0.0451,0.3712,0.6504,"(0.0, 0.0, 0.0, 0.0, 0.0, 0.0, 0.0, 0.0, 0.0)","$VNYMR,-082.485,+001.749,-000.495,+00.0451,+00.3712,+00.6504,+00.245,+00.072,-09.702,-00.000475,+00.001750,-00.000601*60"
1679334426.6612098,5066,1679334426,62565755,imu1_frame,0,0,0,,0.006825285198764519,0.014324653041303077,-0.6590689625174172,0.7519151032153945,"(0.0, 0.0, 0.0, 0.0, 0.0, 0.0, 0.0, 0.0, 0.0)",-0.000606,-0.00151,-9e-06,"(0.0, 0.0, 0.0, 0.0, 0.0, 0.0, 0.0, 0.0, 0.0)",0.318,0.036,-9.702,"(0.0, 0.0, 0.0, 0.0, 0.0, 0.0, 0.0, 0.0, 0.0)",0,0,0,,0.024,0.3717,0.6498,"(0.0, 0.0, 0.0, 0.0, 0.0, 0.0, 0.0, 0.0, 0.0)","$VNYMR,-082.478,+001.750,-000.494,+00.0240,+00.3717,+00.6498,+00.318,+00.036,-09.702,-00.000606,-00.001510,-00.000009*6D"
1679334426.661273,5067,1679334426,65175056,imu1_frame,0,0,0,,0.006812912433511622,0.014335799258904875,-0.6591080816901914,0.7518807124367917,"(0.0, 0.0, 0.0, 0.0, 0.0, 0.0, 0.0, 0.0, 0.0)",-0.002845,0.000833,-0.000816,"(0.0, 0.0, 0.0, 0.0, 0.0, 0.0, 0.0, 0.0, 0.0)",0.276,0.122,-9.705,"(0.0, 0.0, 0.0, 0.0, 0.0, 0.0, 0.0, 0.0, 0.0)",0,0,0,,0.0126,0.3777,0.638,"(0.0, 0.0, 0.0, 0.0, 0.0, 0.0, 0.0, 0.0, 0.0)","$VNYMR,-082.484,+001.750,-000.496,+00.0126,+00.3777,+00.6380,+00.276,+00.122,-09.705,-00.002845,+00.000833,-00.000816*6B"
1679334426.7050674,5068,1679334426,67565822,imu1_frame,0,0,0,,0.006793286077526842,0.01434109794316736,-0.6590685784284996,0.7519154161887428,"(0.0, 0.0, 0.0, 0.0, 0.0, 0.0, 0.0, 0.0, 0.0)",-0.001198,0.001293,-0.000614,"(0.0, 0.0, 0.0, 0.0, 0.0, 0.0, 0.0, 0.0, 0.0)",0.251,0.048,-9.719,"(0.0, 0.0, 0.0, 0.0, 0.0, 0.0, 0.0, 0.0, 0.0)",0,0,0,,0.046,0.3666,0.6505,"(0.0, 0.0, 0.0, 0.0, 0.0, 0.0, 0.0, 0.0, 0.0)","$VNYMR,-082.478,+001.749,-000.498,+00.0460,+00.3666,+00.6505,+00.251,+00.048,-09.719,-00.001198,+00.001293,-00.000614*61"
1679334426.707115,5069,1679334426,70170807,imu1_frame,0,0,0,,0.006805975572983902,0.014341729246373587,-0.6590882721431977,0.7518980270103238,"(0.0, 0.0, 0.0, 0.0, 0.0, 0.0, 0.0, 0.0, 0.0)",0.001107,-0.001345,-0.000239,"(0.0, 0.0, 0.0, 0.0, 0.0, 0.0, 0.0, 0.0, 0.0)",0.284,0.03,-9.707,"(0.0, 0.0, 0.0, 0.0, 0.0, 0.0, 0.0, 0.0, 0.0)",0,0,0,,0.0282,0.3727,0.6512,"(0.0, 0.0, 0.0, 0.0, 0.0, 0.0, 0.0, 0.0, 0.0)","$VNYMR,-082.481,+001.750,-000.497,+00.0282,+00.3727,+00.6512,+00.284,+00.030,-09.707,+00.001107,-00.001345,-00.000239*67"
1679334426.7491894,5070,1679334426,72557282,imu1_frame,0,0,0,,0.006805850417526864,0.014341788639168773,-0.6590817105699963,0.7519037786118986,"(0.0, 0.0, 0.0, 0.0, 0.0, 0.0, 0.0, 0.0, 0.0)",-0.001269,0.000295,0.00081,"(0.0, 0.0, 0.0, 0.0, 0.0, 0.0, 0.0, 0.0, 0.0)",0.299,0.119,-9.642,"(0.0, 0.0, 0.0, 0.0, 0.0, 0.0, 0.0, 0.0, 0.0)",0,0,0,,0.0283,0.3761,0.6448,"(0.0, 0.0, 0.0, 0.0, 0.0, 0.0, 0.0, 0.0, 0.0)","$VNYMR,-082.480,+001.750,-000.497,+00.0283,+00.3761,+00.6448,+00.299,+00.119,-09.642,-00.001269,+00.000295,+00.000810*6C"
1679334426.7926176,5071,1679334426,75163459,imu1_frame,0,0,0,,0.006793786672142952,0.014340860804012145,-0.6590948248263847,0.7518924098972743,"(0.0, 0.0, 0.0, 0.0, 0.0, 0.0, 0.0, 0.0, 0.0)",0.000222,0.002523,-0.000154,"(0.0, 0.0, 0.0, 0.0, 0.0, 0.0, 0.0, 0.0, 0.0)",0.247,0.064,-9.696,"(0.0, 0.0, 0.0, 0.0, 0.0, 0.0, 0.0, 0.0, 0.0)",0,0,0,,0.0293,0.3716,0.6436,"(0.0, 0.0, 0.0, 0.0, 0.0, 0.0, 0.0, 0.0, 0.0)","$VNYMR,-082.482,+001.749,-000.498,+00.0293,+00.3716,+00.6436,+00.247,+00.064,-09.696,+00.000222,+00.002523,-00.000154*6F"
1679334426.7927306,5072,1679334426,77547240,imu1_frame,0,0,0,,0.006806225882343062,0.014341610457506664,-0.6591013951390229,0.7518865236353935,"(0.0, 0.0, 0.0, 0.0, 0.0, 0.0, 0.0, 0.0, 0.0)",-0.00048,-0.00193,0.000262,"(0.0, 0.0, 0.0, 0.0, 0.0, 0.0, 0.0, 0.0, 0.0)",0.314,0.002,-9.731,"(0.0, 0.0, 0.0, 0.0, 0.0, 0.0, 0.0, 0.0, 0.0)",0,0,0,,0.0439,0.3666,0.6492,"(0.0, 0.0, 0.0, 0.0, 0.0, 0.0, 0.0, 0.0, 0.0)","$VNYMR,-082.483,+001.750,-000.497,+00.0439,+00.3666,+00.6492,+00.314,+00.002,-09.731,-00.000480,-00.001930,+00.000262*6F"
1679334426.8367622,5073,1679334426,80159425,imu1_frame,0,0,0,,0.006799597577091362,0.014335465161825298,-0.6590555800540379,0.7519268596818574,"(0.0, 0.0, 0.0, 0.0, 0.0, 0.0, 0.0, 0.0, 0.0)",-0.001214,0.000489,-0.000546,"(0.0, 0.0, 0.0, 0.0, 0.0, 0.0, 0.0, 0.0, 0.0)",0.258,0.106,-9.712,"(0.0, 0.0, 0.0, 0.0, 0.0, 0.0, 0.0, 0.0, 0.0)",0,0,0,,0.0187,0.3695,0.6484,"(0.0, 0.0, 0.0, 0.0, 0.0, 0.0, 0.0, 0.0, 0.0)","$VNYMR,-082.476,+001.749,-000.497,+00.0187,+00.3695,+00.6484,+00.258,+00.106,-09.712,-00.001214,+00.000489,-00.000546*6E"
1679334426.8368585,5074,1679334426,82636451,imu1_frame,0,0,0,,0.006799972876361452,0.014335287143864336,-0.6590752652273344,0.7519096053894396,"(0.0, 0.0, 0.0, 0.0, 0.0, 0.0, 0.0, 0.0, 0.0)",0.001051,0.002367,0.000774,"(0.0, 0.0, 0.0, 0.0, 0.0, 0.0, 0.0, 0.0, 0.0)",0.233,0.076,-9.742,"(0.0, 0.0, 0.0, 0.0, 0.0, 0.0, 0.0, 0.0, 0.0)",0,0,0,,0.0251,0.3717,0.6422,"(0.0, 0.0, 0.0, 0.0, 0.0, 0.0, 0.0, 0.0, 0.0)","$VNYMR,-082.479,+001.749,-000.497,+00.0251,+00.3717,+00.6422,+00.233,+00.076,-09.742,+00.001051,+00.002367,+00.000774*65"
1679334426.8807495,5075,1679334426,85147213,imu1_frame,0,0,0,,0.006818473387601174,0.014330523509447607,-0.6590557139904748,0.7519266655553006,"(0.0, 0.0, 0.0, 0.0, 0.0, 0.0, 0.0, 0.0, 0.0)",0.001198,-0.001722,4.8e-05,"(0.0, 0.0, 0.0, 0.0, 0.0, 0.0, 0.0, 0.0, 0.0)",0.292,0.002,-9.675,"(0.0, 0.0, 0.0, 0.0, 0.0, 0.0, 0.0, 0.0, 0.0)",0,0,0,,0.043,0.3712,0.6491,"(0.0, 0.0, 0.0, 0.0, 0.0, 0.0, 0.0, 0.0, 0.0)","$VNYMR,-082.476,+001.750,-000.495,+00.0430,+00.3712,+00.6491,+00.292,+00.002,-09.675,+00.001198,-00.001722,+00.000048*6D"
1679334426.8808143,5076,1679334426,87645387,imu1_frame,0,0,0,,0.0067992222731609025,0.014335643169960888,-0.6590358944290319,0.7519441134589125,"(0.0, 0.0, 0.0, 0.0, 0.0, 0.0, 0.0, 0.0, 0.0)",-0.00076,-0.000955,-0.00045,"(0.0, 0.0, 0.0, 0.0, 0.0, 0.0, 0.0, 0.0, 0.0)",0.258,0.103,-9.678,"(0.0, 0.0, 0.0, 0.0, 0.0, 0.0, 0.0, 0.0, 0.0)",0,0,0,,0.0262,0.3751,0.646,"(0.0, 0.0, 0.0, 0.0, 0.0, 0.0, 0.0, 0.0, 0.0)","$VNYMR,-082.473,+001.749,-000.497,+00.0262,+00.3751,+00.6460,+00.258,+00.103,-09.678,-00.000760,-00.000955,-00.000450*63"
1679334426.9244072,5077,1679334426,90126037,imu1_frame,0,0,0,,0.0068000321816709085,0.01432333080599343,-0.6590361356753706,0.7519441293281202,"(0.0, 0.0, 0.0, 0.0, 0.0, 0.0, 0.0, 0.0, 0.0)",8.3e-05,0.00172,0.000167,"(0.0, 0.0, 0.0, 0.0, 0.0, 0.0, 0.0, 0.0, 0.0)",0.273,0.04,-9.751,"(0.0, 0.0, 0.0, 0.0, 0.0, 0.0, 0.0, 0.0, 0.0)",0,0,0,,0.0472,0.3722,0.6492,"(0.0, 0.0, 0.0, 0.0, 0.0, 0.0, 0.0, 0.0, 0.0)","$VNYMR,-082.473,+001.748,-000.496,+00.0472,+00.3722,+00.6492,+00.273,+00.040,-09.751,+00.000083,+00.001720,+00.000167*68"
1679334426.9295743,5078,1679334426,92619585,imu1_frame,0,0,0,,0.006805969403092952,0.014317876610286228,-0.6590034502680431,0.7519728251238017,"(0.0, 0.0, 0.0, 0.0, 0.0, 0.0, 0.0, 0.0, 0.0)",0.000161,-0.001592,-0.001286,"(0.0, 0.0, 0.0, 0.0, 0.0, 0.0, 0.0, 0.0, 0.0)",0.267,0.022,-9.666,"(0.0, 0.0, 0.0, 0.0, 0.0, 0.0, 0.0, 0.0, 0.0)",0,0,0,,0.0282,0.3716,0.6512,"(0.0, 0.0, 0.0, 0.0, 0.0, 0.0, 0.0, 0.0, 0.0)","$VNYMR,-082.468,+001.748,-000.495,+00.0282,+00.3716,+00.6512,+00.267,+00.022,-09.666,+00.000161,-00.001592,-00.001286*69"
1679334426.972759,5079,1679334426,95127701,imu1_frame,0,0,0,,0.006799907186770775,0.014323390146923442,-0.6590295736998525,0.7519498804747169,"(0.0, 0.0, 0.0, 0.0, 0.0, 0.0, 0.0, 0.0, 0.0)",-0.001077,-0.000406,-0.00024,"(0.0, 0.0, 0.0, 0.0, 0.0, 0.0, 0.0, 0.0, 0.0)",0.301,0.106,-9.648,"(0.0, 0.0, 0.0, 0.0, 0.0, 0.0, 0.0, 0.0, 0.0)",0,0,0,,-0.0033,0.3781,0.6413,"(0.0, 0.0, 0.0, 0.0, 0.0, 0.0, 0.0, 0.0, 0.0)","$VNYMR,-082.472,+001.748,-000.496,-00.0033,+00.3781,+00.6413,+00.301,+00.106,-09.648,-00.001077,-00.000406,-00.000240*6C"
1679334427.0167217,5080,1679334426,97643256,imu1_frame,0,0,0,,0.006780096036625242,0.014340702663952312,-0.6590226364612723,0.7519558093242394,"(0.0, 0.0, 0.0, 0.0, 0.0, 0.0, 0.0, 0.0, 0.0)",-0.001723,0.00117,0.000289,"(0.0, 0.0, 0.0, 0.0, 0.0, 0.0, 0.0, 0.0, 0.0)",0.251,0.078,-9.792,"(0.0, 0.0, 0.0, 0.0, 0.0, 0.0, 0.0, 0.0, 0.0)",0,0,0,,0.0429,0.3655,0.6492,"(0.0, 0.0, 0.0, 0.0, 0.0, 0.0, 0.0, 0.0, 0.0)","$VNYMR,-082.471,+001.748,-000.499,+00.0429,+00.3655,+00.6492,+00.251,+00.078,-09.792,-00.001723,+00.001170,+00.000289*64"
1679334427.0169656,5081,1679334427,142765,imu1_frame,0,0,0,,0.006786908279788056,0.014334833154268433,-0.6590358855857114,0.7519442478965433,"(0.0, 0.0, 0.0, 0.0, 0.0, 0.0, 0.0, 0.0, 0.0)",-0.001118,-0.000458,-0.000296,"(0.0, 0.0, 0.0, 0.0, 0.0, 0.0, 0.0, 0.0, 0.0)",0.287,0.002,-9.681,"(0.0, 0.0, 0.0, 0.0, 0.0, 0.0, 0.0, 0.0, 0.0)",0,0,0,,0.0302,0.367,0.6488,"(0.0, 0.0, 0.0, 0.0, 0.0, 0.0, 0.0, 0.0, 0.0)","$VNYMR,-082.473,+001.748,-000.498,+00.0302,+00.3670,+00.6488,+00.287,+00.002,-09.681,-00.001118,-00.000458,-00.000296*6E"
1679334427.061547,5082,1679334427,2630019,imu1_frame,0,0,0,,0.006780346328071098,0.014340584326768664,-0.6590357604655989,0.7519443070948593,"(0.0, 0.0, 0.0, 0.0, 0.0, 0.0, 0.0, 0.0, 0.0)",-0.000491,-0.000745,-0.001054,"(0.0, 0.0, 0.0, 0.0, 0.0, 0.0, 0.0, 0.0, 0.0)",0.237,0.132,-9.658,"(0.0, 0.0, 0.0, 0.0, 0.0, 0.0, 0.0, 0.0, 0.0)",0,0,0,,0.0061,0.3744,0.6416,"(0.0, 0.0, 0.0, 0.0, 0.0, 0.0, 0.0, 0.0, 0.0)","$VNYMR,-082.473,+001.748,-000.499,+00.0061,+00.3744,+00.6416,+00.237,+00.132,-09.658,-00.000491,-00.000745,-00.001054*62"
1679334427.0617437,5083,1679334427,5130887,imu1_frame,0,0,0,,0.006767782053876367,0.014339892433108948,-0.6590226276368171,0.7519559434393368,"(0.0, 0.0, 0.0, 0.0, 0.0, 0.0, 0.0, 0.0, 0.0)",-0.000762,0.002701,0.000451,"(0.0, 0.0, 0.0, 0.0, 0.0, 0.0, 0.0, 0.0, 0.0)",0.261,0.067,-9.774,"(0.0, 0.0, 0.0, 0.0, 0.0, 0.0, 0.0, 0.0, 0.0)",0,0,0,,0.0282,0.3716,0.6461,"(0.0, 0.0, 0.0, 0.0, 0.0, 0.0, 0.0, 0.0, 0.0)","$VNYMR,-082.471,+001.747,-000.500,+00.0282,+00.3716,+00.6461,+00.261,+00.067,-09.774,-00.000762,+00.002701,+00.000451*66"
1679334427.1043532,5084,1679334427,7633781,imu1_frame,0,0,0,,0.006780221182606341,0.014340643495906538,-0.6590291984885296,0.7519500582381815,"(0.0, 0.0, 0.0, 0.0, 0.0, 0.0, 0.0, 0.0, 0.0)",-3e-05,-0.001493,-0.00081,"(0.0, 0.0, 0.0, 0.0, 0.0, 0.0, 0.0, 0.0, 0.0)",0.235,0.024,-9.676,"(0.0, 0.0, 0.0, 0.0, 0.0, 0.0, 0.0, 0.0, 0.0)",0,0,0,,0.0408,0.3678,0.6478,"(0.0, 0.0, 0.0, 0.0, 0.0, 0.0, 0.0, 0.0, 0.0)","$VNYMR,-082.472,+001.748,-000.499,+00.0408,+00.3678,+00.6478,+00.235,+00.024,-09.676,-00.000030,-00.001493,-00.000810*69"
1679334427.108019,5085,1679334427,10203027,imu1_frame,0,0,0,,0.0067729079954347935,0.014346749258350033,-0.6589897003982708,0.7519846230289557,"(0.0, 0.0, 0.0, 0.0, 0.0, 0.0, 0.0, 0.0, 0.0)",-0.001584,0.001083,0.000236,"(0.0, 0.0, 0.0, 0.0, 0.0, 0.0, 0.0, 0.0, 0.0)",0.278,0.091,-9.683,"(0.0, 0.0, 0.0, 0.0, 0.0, 0.0, 0.0, 0.0, 0.0)",0,0,0,,0.0218,0.3672,0.6485,"(0.0, 0.0, 0.0, 0.0, 0.0, 0.0, 0.0, 0.0, 0.0)","$VNYMR,-082.466,+001.748,-000.500,+00.0218,+00.3672,+00.6485,+00.278,+00.091,-09.683,-00.001584,+00.001083,+00.000236*6F"
1679334427.148738,5086,1679334427,12621521,imu1_frame,0,0,0,,0.00675453270600255,0.014351453490585723,-0.6590158151784601,0.7519618124714187,"(0.0, 0.0, 0.0, 0.0, 0.0, 0.0, 0.0, 0.0, 0.0)",-0.001853,0.002444,-9.9e-05,"(0.0, 0.0, 0.0, 0.0, 0.0, 0.0, 0.0, 0.0, 0.0)",0.237,0.076,-9.767,"(0.0, 0.0, 0.0, 0.0, 0.0, 0.0, 0.0, 0.0, 0.0)",0,0,0,,0.0208,0.3706,0.6485,"(0.0, 0.0, 0.0, 0.0, 0.0, 0.0, 0.0, 0.0, 0.0)","$VNYMR,-082.470,+001.747,-000.502,+00.0208,+00.3706,+00.6485,+00.237,+00.076,-09.767,-00.001853,+00.002444,-00.000099*65"
1679334427.1923304,5087,1679334427,15182542,imu1_frame,0,0,0,,0.006767531774508247,0.01434001055100475,-0.6590095034294,0.7519674454395043,"(0.0, 0.0, 0.0, 0.0, 0.0, 0.0, 0.0, 0.0, 0.0)",-4.3e-05,-0.002349,-0.001387,"(0.0, 0.0, 0.0, 0.0, 0.0, 0.0, 0.0, 0.0, 0.0)",0.285,-0.001,-9.632,"(0.0, 0.0, 0.0, 0.0, 0.0, 0.0, 0.0, 0.0, 0.0)",0,0,0,,0.046,0.3631,0.6518,"(0.0, 0.0, 0.0, 0.0, 0.0, 0.0, 0.0, 0.0, 0.0)","$VNYMR,-082.469,+001.747,-000.500,+00.0460,+00.3631,+00.6518,+00.285,-00.001,-09.632,-00.000043,-00.002349,-00.001387*60"
1679334427.1924121,5088,1679334427,17631530,imu1_frame,0,0,0,,0.0067732835901309855,0.01434657193911682,-0.6590093870838307,0.7519673704612436,"(0.0, 0.0, 0.0, 0.0, 0.0, 0.0, 0.0, 0.0, 0.0)",-0.000279,0.000156,-9.8e-05,"(0.0, 0.0, 0.0, 0.0, 0.0, 0.0, 0.0, 0.0, 0.0)",0.247,0.084,-9.695,"(0.0, 0.0, 0.0, 0.0, 0.0, 0.0, 0.0, 0.0, 0.0)",0,0,0,,0.0239,0.3694,0.646,"(0.0, 0.0, 0.0, 0.0, 0.0, 0.0, 0.0, 0.0, 0.0)","$VNYMR,-082.469,+001.748,-000.500,+00.0239,+00.3694,+00.6460,+00.247,+00.084,-09.695,-00.000279,+00.000156,-00.000098*63"
1679334427.2363691,5089,1679334427,20170545,imu1_frame,0,0,0,,0.006761220000097275,0.014345643489911557,-0.6590225024725547,0.7519560024707443,"(0.0, 0.0, 0.0, 0.0, 0.0, 0.0, 0.0, 0.0, 0.0)",-0.000891,0.001877,0.000579,"(0.0, 0.0, 0.0, 0.0, 0.0, 0.0, 0.0, 0.0, 0.0)",0.31,0.042,-9.798,"(0.0, 0.0, 0.0, 0.0, 0.0, 0.0, 0.0, 0.0, 0.0)",0,0,0,,0.0441,0.3735,0.6504,"(0.0, 0.0, 0.0, 0.0, 0.0, 0.0, 0.0, 0.0, 0.0)","$VNYMR,-082.471,+001.747,-000.501,+00.0441,+00.3735,+00.6504,+00.310,+00.042,-09.798,-00.000891,+00.001877,+00.000579*6A"
1679334427.2364511,5090,1679334427,22622013,imu1_frame,0,0,0,,0.006772849164783726,0.014358706958521239,-0.6590288316417302,0.7519501014785532,"(0.0, 0.0, 0.0, 0.0, 0.0, 0.0, 0.0, 0.0, 0.0)",-0.001912,0.001158,0.000746,"(0.0, 0.0, 0.0, 0.0, 0.0, 0.0, 0.0, 0.0, 0.0)",0.298,0.019,-9.625,"(0.0, 0.0, 0.0, 0.0, 0.0, 0.0, 0.0, 0.0, 0.0)",0,0,0,,0.024,0.3717,0.6447,"(0.0, 0.0, 0.0, 0.0, 0.0, 0.0, 0.0, 0.0, 0.0)","$VNYMR,-082.472,+001.749,-000.501,+00.0240,+00.3717,+00.6447,+00.298,+00.019,-09.625,-00.001912,+00.001158,+00.000746*6F"
1679334427.2803872,5091,1679334427,25156044,imu1_frame,0,0,0,,0.00676622990366472,0.014376416152340372,-0.6590678354290649,0.7519156369529446,"(0.0, 0.0, 0.0, 0.0, 0.0, 0.0, 0.0, 0.0, 0.0)",0.001278,-0.000222,-0.00051,"(0.0, 0.0, 0.0, 0.0, 0.0, 0.0, 0.0, 0.0, 0.0)",0.28,0.099,-9.689,"(0.0, 0.0, 0.0, 0.0, 0.0, 0.0, 0.0, 0.0, 0.0)",0,0,0,,0.0399,0.3724,0.6452,"(0.0, 0.0, 0.0, 0.0, 0.0, 0.0, 0.0, 0.0, 0.0)","$VNYMR,-082.478,+001.750,-000.503,+00.0399,+00.3724,+00.6452,+00.280,+00.099,-09.689,+00.001278,-00.000222,-00.000510*66"
1679334427.2804801,5092,1679334427,27628898,imu1_frame,0,0,0,,0.006761971126965446,0.014345289453595662,-0.6590618738933828,0.7519214951024565,"(0.0, 0.0, 0.0, 0.0, 0.0, 0.0, 0.0, 0.0, 0.0)",0.001375,0.000865,0.000213,"(0.0, 0.0, 0.0, 0.0, 0.0, 0.0, 0.0, 0.0, 0.0)",0.315,0.067,-9.792,"(0.0, 0.0, 0.0, 0.0, 0.0, 0.0, 0.0, 0.0, 0.0)",0,0,0,,0.0366,0.3679,0.6489,"(0.0, 0.0, 0.0, 0.0, 0.0, 0.0, 0.0, 0.0, 0.0)","$VNYMR,-082.477,+001.747,-000.501,+00.0366,+00.3679,+00.6489,+00.315,+00.067,-09.792,+00.001375,+00.000865,+00.000213*64"
1679334427.3240416,5093,1679334427,30160379,imu1_frame,0,0,0,,0.006774285153290939,0.014346099039756201,-0.6590618827037507,0.7519213610943575,"(0.0, 0.0, 0.0, 0.0, 0.0, 0.0, 0.0, 0.0, 0.0)",-0.000394,-0.000203,-0.000158,"(0.0, 0.0, 0.0, 0.0, 0.0, 0.0, 0.0, 0.0, 0.0)",0.252,0.002,-9.633,"(0.0, 0.0, 0.0, 0.0, 0.0, 0.0, 0.0, 0.0, 0.0)",0,0,0,,0.025,0.3705,0.6435,"(0.0, 0.0, 0.0, 0.0, 0.0, 0.0, 0.0, 0.0, 0.0)","$VNYMR,-082.477,+001.748,-000.500,+00.0250,+00.3705,+00.6435,+00.252,+00.002,-09.633,-00.000394,-00.000203,-00.000158*66"
1679334427.3298209,5094,1679334427,32615661,imu1_frame,0,0,0,,0.00677254078874177,0.014370782905256197,-0.6590548373589558,0.7519270806692064,"(0.0, 0.0, 0.0, 0.0, 0.0, 0.0, 0.0, 0.0, 0.0)",-0.000966,0.002168,0.000114,"(0.0, 0.0, 0.0, 0.0, 0.0, 0.0, 0.0, 0.0, 0.0)",0.273,0.114,-9.646,"(0.0, 0.0, 0.0, 0.0, 0.0, 0.0, 0.0, 0.0, 0.0)",0,0,0,,0.0472,0.3688,0.648,"(0.0, 0.0, 0.0, 0.0, 0.0, 0.0, 0.0, 0.0, 0.0)","$VNYMR,-082.476,+001.750,-000.502,+00.0472,+00.3688,+00.6480,+00.273,+00.114,-09.646,-00.000966,+00.002168,+00.000114*64"
1679334427.3720326,5095,1679334427,35177278,imu1_frame,0,0,0,,0.006767347668414395,0.01435202761278966,-0.6590420720027215,0.7519386741212984,"(0.0, 0.0, 0.0, 0.0, 0.0, 0.0, 0.0, 0.0, 0.0)",0.001575,0.000107,-0.000505,"(0.0, 0.0, 0.0, 0.0, 0.0, 0.0, 0.0, 0.0, 0.0)",0.318,0.05,-9.811,"(0.0, 0.0, 0.0, 0.0, 0.0, 0.0, 0.0, 0.0, 0.0)",0,0,0,,0.0261,0.3705,0.6461,"(0.0, 0.0, 0.0, 0.0, 0.0, 0.0, 0.0, 0.0, 0.0)","$VNYMR,-082.474,+001.748,-000.501,+00.0261,+00.3705,+00.6461,+00.318,+00.050,-09.811,+00.001575,+00.000107,-00.000505*62"
1679334427.4181082,5096,1679334427,37610602,imu1_frame,0,0,0,,0.00677441034636452,0.014346039922419746,-0.6590684444303888,0.7519156096658128,"(0.0, 0.0, 0.0, 0.0, 0.0, 0.0, 0.0, 0.0, 0.0)",-0.001015,-0.001071,4.7e-05,"(0.0, 0.0, 0.0, 0.0, 0.0, 0.0, 0.0, 0.0, 0.0)",0.267,0.015,-9.599,"(0.0, 0.0, 0.0, 0.0, 0.0, 0.0, 0.0, 0.0, 0.0)",0,0,0,,0.0481,0.3654,0.6493,"(0.0, 0.0, 0.0, 0.0, 0.0, 0.0, 0.0, 0.0, 0.0)","$VNYMR,-082.478,+001.748,-000.500,+00.0481,+00.3654,+00.6493,+00.267,+00.015,-09.599,-00.001015,-00.001071,+00.000047*6D"
1679334427.4182312,5097,1679334427,40145754,imu1_frame,0,0,0,,0.0067672224230886265,0.014352086668492392,-0.659035510074809,0.7519444253196994,"(0.0, 0.0, 0.0, 0.0, 0.0, 0.0, 0.0, 0.0, 0.0)",-0.001172,0.002042,-0.001727,"(0.0, 0.0, 0.0, 0.0, 0.0, 0.0, 0.0, 0.0, 0.0)",0.247,0.122,-9.678,"(0.0, 0.0, 0.0, 0.0, 0.0, 0.0, 0.0, 0.0, 0.0)",0,0,0,,0.026,0.3682,0.6524,"(0.0, 0.0, 0.0, 0.0, 0.0, 0.0, 0.0, 0.0, 0.0)","$VNYMR,-082.473,+001.748,-000.501,+00.0260,+00.3682,+00.6524,+00.247,+00.122,-09.678,-00.001172,+00.002042,-00.001727*60"
1679334427.4617724,5098,1679334427,42607522,imu1_frame,0,0,0,,0.0067618459404414095,0.014345348462379478,-0.6590553121153845,0.7519272464736624,"(0.0, 0.0, 0.0, 0.0, 0.0, 0.0, 0.0, 0.0, 0.0)",0.001431,0.000385,-0.000727,"(0.0, 0.0, 0.0, 0.0, 0.0, 0.0, 0.0, 0.0, 0.0)",0.291,0.039,-9.774,"(0.0, 0.0, 0.0, 0.0, 0.0, 0.0, 0.0, 0.0, 0.0)",0,0,0,,0.024,0.3728,0.646,"(0.0, 0.0, 0.0, 0.0, 0.0, 0.0, 0.0, 0.0, 0.0)","$VNYMR,-082.476,+001.747,-000.501,+00.0240,+00.3728,+00.6460,+00.291,+00.039,-09.774,+00.001431,+00.000385,-00.000727*6A"
1679334427.4619489,5099,1679334427,45165300,imu1_frame,0,0,0,,0.0067622802860126,0.014333213122421102,-0.6590358679414825,0.751944516127046,"(0.0, 0.0, 0.0, 0.0, 0.0, 0.0, 0.0, 0.0, 0.0)",-0.001632,-0.001019,0.001121,"(0.0, 0.0, 0.0, 0.0, 0.0, 0.0, 0.0, 0.0, 0.0)",0.216,-0.008,-9.641,"(0.0, 0.0, 0.0, 0.0, 0.0, 0.0, 0.0, 0.0, 0.0)",0,0,0,,0.044,0.3689,0.6441,"(0.0, 0.0, 0.0, 0.0, 0.0, 0.0, 0.0, 0.0, 0.0)","$VNYMR,-082.473,+001.746,-000.500,+00.0440,+00.3689,+00.6441,+00.216,-00.008,-09.641,-00.001632,-00.001019,+00.001121*6D"
1679334427.5045304,5100,1679334427,47601699,imu1_frame,0,0,0,,0.0067672224230886265,0.014352086668492392,-0.659035510074809,0.7519444253196994,"(0.0, 0.0, 0.0, 0.0, 0.0, 0.0, 0.0, 0.0, 0.0)",-0.001522,0.001113,0.000494,"(0.0, 0.0, 0.0, 0.0, 0.0, 0.0, 0.0, 0.0, 0.0)",0.293,0.068,-9.732,"(0.0, 0.0, 0.0, 0.0, 0.0, 0.0, 0.0, 0.0, 0.0)",0,0,0,,0.025,0.3694,0.6461,"(0.0, 0.0, 0.0, 0.0, 0.0, 0.0, 0.0, 0.0, 0.0)","$VNYMR,-082.473,+001.748,-000.501,+00.0250,+00.3694,+00.6461,+00.293,+00.068,-09.732,-00.001522,+00.001113,+00.000494*66"
1679334427.5100212,5101,1679334427,50137257,imu1_frame,0,0,0,,0.006761345189195931,0.01434558448659009,-0.6590290645014976,0.7519502513858558,"(0.0, 0.0, 0.0, 0.0, 0.0, 0.0, 0.0, 0.0, 0.0)",0.000906,0.001905,-0.000387,"(0.0, 0.0, 0.0, 0.0, 0.0, 0.0, 0.0, 0.0, 0.0)",0.304,0.017,-9.857,"(0.0, 0.0, 0.0, 0.0, 0.0, 0.0, 0.0, 0.0, 0.0)",0,0,0,,0.046,0.3643,0.6505,"(0.0, 0.0, 0.0, 0.0, 0.0, 0.0, 0.0, 0.0, 0.0)","$VNYMR,-082.472,+001.747,-000.501,+00.0460,+00.3643,+00.6505,+00.304,+00.017,-09.857,+00.000906,+00.001905,-00.000387*6E"
1679334427.552577,5102,1679334427,52581143,imu1_frame,0,0,0,,0.006768032331182901,0.014339774310844967,-0.6590357516434846,0.7519444412101106,"(0.0, 0.0, 0.0, 0.0, 0.0, 0.0, 0.0, 0.0, 0.0)",-0.000825,-0.000242,0.000542,"(0.0, 0.0, 0.0, 0.0, 0.0, 0.0, 0.0, 0.0, 0.0)",0.315,-0.013,-9.66,"(0.0, 0.0, 0.0, 0.0, 0.0, 0.0, 0.0, 0.0, 0.0)",0,0,0,,0.023,0.374,0.6459,"(0.0, 0.0, 0.0, 0.0, 0.0, 0.0, 0.0, 0.0, 0.0)","$VNYMR,-082.473,+001.747,-000.500,+00.0230,+00.3740,+00.6459,+00.315,-00.013,-09.660,-00.000825,-00.000242,+00.000542*6F"
1679334427.5975788,5103,1679334427,55134654,imu1_frame,0,0,0,,0.006767598157519835,0.014351909498105284,-0.6590551957079794,0.7519271715527066,"(0.0, 0.0, 0.0, 0.0, 0.0, 0.0, 0.0, 0.0, 0.0)",-0.00203,0.001548,-0.000492,"(0.0, 0.0, 0.0, 0.0, 0.0, 0.0, 0.0, 0.0, 0.0)",0.289,0.089,-9.707,"(0.0, 0.0, 0.0, 0.0, 0.0, 0.0, 0.0, 0.0, 0.0)",0,0,0,,0.0283,0.3727,0.6436,"(0.0, 0.0, 0.0, 0.0, 0.0, 0.0, 0.0, 0.0, 0.0)","$VNYMR,-082.476,+001.748,-000.501,+00.0283,+00.3727,+00.6436,+00.289,+00.089,-09.707,-00.002030,+00.001548,-00.000492*6B"
1679334427.598904,5104,1679334427,57634401,imu1_frame,0,0,0,,0.0067480958909948985,0.014357145600238885,-0.6590222519934678,0.7519561203617654,"(0.0, 0.0, 0.0, 0.0, 0.0, 0.0, 0.0, 0.0, 0.0)",-0.001077,-0.001635,-0.000975,"(0.0, 0.0, 0.0, 0.0, 0.0, 0.0, 0.0, 0.0, 0.0)",0.294,0.031,-9.801,"(0.0, 0.0, 0.0, 0.0, 0.0, 0.0, 0.0, 0.0, 0.0)",0,0,0,,0.0461,0.3666,0.6442,"(0.0, 0.0, 0.0, 0.0, 0.0, 0.0, 0.0, 0.0, 0.0)","$VNYMR,-082.471,+001.747,-000.503,+00.0461,+00.3666,+00.6442,+00.294,+00.031,-09.801,-00.001077,-00.001635,-00.000975*61"
1679334427.64028,5105,1679334427,60163760,imu1_frame,0,0,0,,0.006755033662119068,0.014351217704172057,-0.6590420631959132,0.7519388080217069,"(0.0, 0.0, 0.0, 0.0, 0.0, 0.0, 0.0, 0.0, 0.0)",-3.9e-05,-0.000751,-0.001586,"(0.0, 0.0, 0.0, 0.0, 0.0, 0.0, 0.0, 0.0, 0.0)",0.182,0.063,-9.668,"(0.0, 0.0, 0.0, 0.0, 0.0, 0.0, 0.0, 0.0, 0.0)",0,0,0,,0.0219,0.3717,0.6459,"(0.0, 0.0, 0.0, 0.0, 0.0, 0.0, 0.0, 0.0, 0.0)","$VNYMR,-082.474,+001.747,-000.502,+00.0219,+00.3717,+00.6459,+00.182,+00.063,-09.668,-00.000039,-00.000751,-00.001586*6B"
1679334427.640384,5106,1679334427,62611818,imu1_frame,0,0,0,,0.006742719653488612,0.014350407795400873,-0.6590420544032403,0.7519389417071952,"(0.0, 0.0, 0.0, 0.0, 0.0, 0.0, 0.0, 0.0, 0.0)",-0.000614,0.001173,-6.9e-05,"(0.0, 0.0, 0.0, 0.0, 0.0, 0.0, 0.0, 0.0, 0.0)",0.283,0.098,-9.688,"(0.0, 0.0, 0.0, 0.0, 0.0, 0.0, 0.0, 0.0, 0.0)",0,0,0,,0.0408,0.3667,0.6465,"(0.0, 0.0, 0.0, 0.0, 0.0, 0.0, 0.0, 0.0, 0.0)","$VNYMR,-082.474,+001.746,-000.503,+00.0408,+00.3667,+00.6465,+00.283,+00.098,-09.688,-00.000614,+00.001173,-00.000069*61"
1679334427.688164,5107,1679334427,65145564,imu1_frame,0,0,0,,0.00672921984591837,0.014362086422458432,-0.6590221178966115,0.7519563126917174,"(0.0, 0.0, 0.0, 0.0, 0.0, 0.0, 0.0, 0.0, 0.0)",4.1e-05,0.000628,-6.1e-05,"(0.0, 0.0, 0.0, 0.0, 0.0, 0.0, 0.0, 0.0, 0.0)",0.299,0.023,-9.789,"(0.0, 0.0, 0.0, 0.0, 0.0, 0.0, 0.0, 0.0, 0.0)",0,0,0,,0.0294,0.375,0.6461,"(0.0, 0.0, 0.0, 0.0, 0.0, 0.0, 0.0, 0.0, 0.0)","$VNYMR,-082.471,+001.746,-000.505,+00.0294,+00.3750,+00.6461,+00.299,+00.023,-09.789,+00.000041,+00.000628,-00.000061*6B"
1679334427.6882942,5108,1679334427,67628145,imu1_frame,0,0,0,,0.0067305308661352314,0.01434953915206073,-0.6590486075059265,0.7519333239223294,"(0.0, 0.0, 0.0, 0.0, 0.0, 0.0, 0.0, 0.0, 0.0)",-0.000816,6.4e-05,-0.000536,"(0.0, 0.0, 0.0, 0.0, 0.0, 0.0, 0.0, 0.0, 0.0)",0.201,0.054,-9.637,"(0.0, 0.0, 0.0, 0.0, 0.0, 0.0, 0.0, 0.0, 0.0)",0,0,0,,0.0356,0.3703,0.6451,"(0.0, 0.0, 0.0, 0.0, 0.0, 0.0, 0.0, 0.0, 0.0)","$VNYMR,-082.475,+001.745,-000.504,+00.0356,+00.3703,+00.6451,+00.201,+00.054,-09.637,-00.000816,+00.000064,-00.000536*67"
1679334427.7318804,5109,1679334427,70130872,imu1_frame,0,0,0,,0.006730155193772236,0.014349715352029233,-0.6590289217116894,0.7519505775168415,"(0.0, 0.0, 0.0, 0.0, 0.0, 0.0, 0.0, 0.0, 0.0)",-0.000472,-0.000221,-0.000382,"(0.0, 0.0, 0.0, 0.0, 0.0, 0.0, 0.0, 0.0, 0.0)",0.316,0.09,-9.746,"(0.0, 0.0, 0.0, 0.0, 0.0, 0.0, 0.0, 0.0, 0.0)",0,0,0,,0.0334,0.368,0.6451,"(0.0, 0.0, 0.0, 0.0, 0.0, 0.0, 0.0, 0.0, 0.0)","$VNYMR,-082.472,+001.745,-000.504,+00.0334,+00.3680,+00.6451,+00.316,+00.090,-09.746,-00.000472,-00.000221,-00.000382*64"
1679334427.7319694,5110,1679334427,72577595,imu1_frame,0,0,0,,0.0067237184616427935,0.014355407788791678,-0.6590353584438189,0.751944885080079,"(0.0, 0.0, 0.0, 0.0, 0.0, 0.0, 0.0, 0.0, 0.0)",-0.00044,0.000624,-0.000802,"(0.0, 0.0, 0.0, 0.0, 0.0, 0.0, 0.0, 0.0, 0.0)",0.33,0.066,-9.807,"(0.0, 0.0, 0.0, 0.0, 0.0, 0.0, 0.0, 0.0, 0.0)",0,0,0,,0.024,0.3717,0.6435,"(0.0, 0.0, 0.0, 0.0, 0.0, 0.0, 0.0, 0.0, 0.0)","$VNYMR,-082.473,+001.745,-000.505,+00.0240,+00.3717,+00.6435,+00.330,+00.066,-09.807,-00.000440,+00.000624,-00.000802*69"
1679334427.7768388,5111,1679334427,75133848,imu1_frame,0,0,0,,0.006736341673796621,0.014344140601136299,-0.6590093606670953,0.7519677718389366,"(0.0, 0.0, 0.0, 0.0, 0.0, 0.0, 0.0, 0.0, 0.0)",0.000509,-0.000253,-0.00107,"(0.0, 0.0, 0.0, 0.0, 0.0, 0.0, 0.0, 0.0, 0.0)",0.256,0.059,-9.603,"(0.0, 0.0, 0.0, 0.0, 0.0, 0.0, 0.0, 0.0, 0.0)",0,0,0,,0.0377,0.3702,0.6426,"(0.0, 0.0, 0.0, 0.0, 0.0, 0.0, 0.0, 0.0, 0.0)","$VNYMR,-082.469,+001.745,-000.503,+00.0377,+00.3702,+00.6426,+00.256,+00.059,-09.603,+00.000509,-00.000253,-00.001070*64"
1679334427.782035,5112,1679334427,77572751,imu1_frame,0,0,0,,0.006749156377384578,0.014344715466021764,-0.6590356176793443,0.7519446340365744,"(0.0, 0.0, 0.0, 0.0, 0.0, 0.0, 0.0, 0.0, 0.0)",-0.000814,0.000725,7.2e-05,"(0.0, 0.0, 0.0, 0.0, 0.0, 0.0, 0.0, 0.0, 0.0)",0.296,0.062,-9.744,"(0.0, 0.0, 0.0, 0.0, 0.0, 0.0, 0.0, 0.0, 0.0)",0,0,0,,0.0313,0.3669,0.6437,"(0.0, 0.0, 0.0, 0.0, 0.0, 0.0, 0.0, 0.0, 0.0)","$VNYMR,-082.473,+001.746,-000.502,+00.0313,+00.3669,+00.6437,+00.296,+00.062,-09.744,-00.000814,+00.000725,+00.000072*65"
1679334427.824966,5113,1679334427,80153417,imu1_frame,0,0,0,,0.0067492815583851595,0.0143446565679753,-0.6590421796090783,0.7519388828372344,"(0.0, 0.0, 0.0, 0.0, 0.0, 0.0, 0.0, 0.0, 0.0)",0.001093,-0.001487,-0.001026,"(0.0, 0.0, 0.0, 0.0, 0.0, 0.0, 0.0, 0.0, 0.0)",0.357,0.016,-9.821,"(0.0, 0.0, 0.0, 0.0, 0.0, 0.0, 0.0, 0.0, 0.0)",0,0,0,,0.0451,0.3689,0.6454,"(0.0, 0.0, 0.0, 0.0, 0.0, 0.0, 0.0, 0.0, 0.0)","$VNYMR,-082.474,+001.746,-000.502,+00.0451,+00.3689,+00.6454,+00.357,+00.016,-09.821,+00.001093,-00.001487,-00.001026*61"
1679334427.8696034,5114,1679334427,82606077,imu1_frame,0,0,0,,0.006755217803563571,0.014339200105088035,-0.659009494616749,0.7519675793395283,"(0.0, 0.0, 0.0, 0.0, 0.0, 0.0, 0.0, 0.0, 0.0)",-0.001227,-0.001028,0.000246,"(0.0, 0.0, 0.0, 0.0, 0.0, 0.0, 0.0, 0.0, 0.0)",0.217,0.026,-9.604,"(0.0, 0.0, 0.0, 0.0, 0.0, 0.0, 0.0, 0.0, 0.0)",0,0,0,,0.021,0.3786,0.6382,"(0.0, 0.0, 0.0, 0.0, 0.0, 0.0, 0.0, 0.0, 0.0)","$VNYMR,-082.469,+001.746,-000.501,+00.0210,+00.3786,+00.6382,+00.217,+00.026,-09.604,-00.001227,-00.001028,+00.000246*69"
1679334427.8699493,5115,1679334427,85191535,imu1_frame,0,0,0,,0.006761720753402433,0.014345407470070834,-0.6590487502871964,0.7519329977876056,"(0.0, 0.0, 0.0, 0.0, 0.0, 0.0, 0.0, 0.0, 0.0)",0.000277,-4.8e-05,-0.000708,"(0.0, 0.0, 0.0, 0.0, 0.0, 0.0, 0.0, 0.0, 0.0)",0.358,0.044,-9.761,"(0.0, 0.0, 0.0, 0.0, 0.0, 0.0, 0.0, 0.0, 0.0)",0,0,0,,0.0388,0.3725,0.6401,"(0.0, 0.0, 0.0, 0.0, 0.0, 0.0, 0.0, 0.0, 0.0)","$VNYMR,-082.475,+001.747,-000.501,+00.0388,+00.3725,+00.6401,+00.358,+00.044,-09.761,+00.000277,-00.000048,-00.000708*60"
1679334427.9124362,5116,1679334427,87590813,imu1_frame,0,0,0,,0.00675453270600255,0.014351453490585723,-0.6590158151784601,0.7519618124714187,"(0.0, 0.0, 0.0, 0.0, 0.0, 0.0, 0.0, 0.0, 0.0)",-0.000303,-0.001244,-0.001084,"(0.0, 0.0, 0.0, 0.0, 0.0, 0.0, 0.0, 0.0, 0.0)",0.307,0.026,-9.831,"(0.0, 0.0, 0.0, 0.0, 0.0, 0.0, 0.0, 0.0, 0.0)",0,0,0,,0.0431,0.3746,0.6427,"(0.0, 0.0, 0.0, 0.0, 0.0, 0.0, 0.0, 0.0, 0.0)","$VNYMR,-082.470,+001.747,-000.502,+00.0431,+00.3746,+00.6427,+00.307,+00.026,-09.831,-00.000303,-00.001244,-00.001084*6F"
1679334427.9124947,5117,1679334427,90103435,imu1_frame,0,0,0,,0.006748655648242571,0.014344951047283451,-0.659009369458529,0.7519676382612918,"(0.0, 0.0, 0.0, 0.0, 0.0, 0.0, 0.0, 0.0, 0.0)",-0.001356,-0.000271,0.000389,"(0.0, 0.0, 0.0, 0.0, 0.0, 0.0, 0.0, 0.0, 0.0)",0.237,-0.001,-9.613,"(0.0, 0.0, 0.0, 0.0, 0.0, 0.0, 0.0, 0.0, 0.0)",0,0,0,,0.0187,0.3718,0.6395,"(0.0, 0.0, 0.0, 0.0, 0.0, 0.0, 0.0, 0.0, 0.0)","$VNYMR,-082.469,+001.746,-000.502,+00.0187,+00.3718,+00.6395,+00.237,-00.001,-09.613,-00.001356,-00.000271,+00.000389*6B"
1679334427.956498,5118,1679334427,92576861,imu1_frame,0,0,0,,0.006755284137090811,0.014351099804407762,-0.659055186903508,0.7519273054532688,"(0.0, 0.0, 0.0, 0.0, 0.0, 0.0, 0.0, 0.0, 0.0)",-0.000141,0.001211,-0.000441,"(0.0, 0.0, 0.0, 0.0, 0.0, 0.0, 0.0, 0.0, 0.0)",0.297,0.074,-9.794,"(0.0, 0.0, 0.0, 0.0, 0.0, 0.0, 0.0, 0.0, 0.0)",0,0,0,,0.0387,0.369,0.6427,"(0.0, 0.0, 0.0, 0.0, 0.0, 0.0, 0.0, 0.0, 0.0)","$VNYMR,-082.476,+001.747,-000.502,+00.0387,+00.3690,+00.6427,+00.297,+00.074,-09.794,-00.000141,+00.001211,-00.000441*68"
1679334427.9592466,5119,1679334427,95136189,imu1_frame,0,0,0,,0.006742844884164383,0.014350348953525204,-0.659048616283299,0.7519331904516844,"(0.0, 0.0, 0.0, 0.0, 0.0, 0.0, 0.0, 0.0, 0.0)",-0.001515,-0.000472,-0.000124,"(0.0, 0.0, 0.0, 0.0, 0.0, 0.0, 0.0, 0.0, 0.0)",0.367,0.018,-9.791,"(0.0, 0.0, 0.0, 0.0, 0.0, 0.0, 0.0, 0.0, 0.0)",0,0,0,,0.0261,0.3716,0.6359,"(0.0, 0.0, 0.0, 0.0, 0.0, 0.0, 0.0, 0.0, 0.0)","$VNYMR,-082.475,+001.746,-000.503,+00.0261,+00.3716,+00.6359,+00.367,+00.018,-09.791,-00.001515,-00.000472,-00.000124*64"
1679334428.0046585,5120,1679334427,97562885,imu1_frame,0,0,0,,0.0067367841472732014,0.014355865087738546,-0.6590747380481745,0.7519102436751782,"(0.0, 0.0, 0.0, 0.0, 0.0, 0.0, 0.0, 0.0, 0.0)",-0.003145,-0.000266,0.00019,"(0.0, 0.0, 0.0, 0.0, 0.0, 0.0, 0.0, 0.0, 0.0)",0.177,0.078,-9.511,"(0.0, 0.0, 0.0, 0.0, 0.0, 0.0, 0.0, 0.0, 0.0)",0,0,0,,0.0388,0.3713,0.6388,"(0.0, 0.0, 0.0, 0.0, 0.0, 0.0, 0.0, 0.0, 0.0)","$VNYMR,-082.479,+001.746,-000.504,+00.0388,+00.3713,+00.6388,+00.177,+00.078,-09.511,-00.003145,-00.000266,+00.000190*66"
1679334428.0484352,5121,1679334428,209784,imu1_frame,0,0,0,,0.006723033935720039,0.014367661471118759,-0.6590416784845926,0.7519391179734976,"(0.0, 0.0, 0.0, 0.0, 0.0, 0.0, 0.0, 0.0, 0.0)",-0.000896,0.001442,-0.001182,"(0.0, 0.0, 0.0, 0.0, 0.0, 0.0, 0.0, 0.0, 0.0)",0.3,0.07,-9.808,"(0.0, 0.0, 0.0, 0.0, 0.0, 0.0, 0.0, 0.0, 0.0)",0,0,0,,0.0293,0.3704,0.6436,"(0.0, 0.0, 0.0, 0.0, 0.0, 0.0, 0.0, 0.0, 0.0)","$VNYMR,-082.474,+001.746,-000.506,+00.0293,+00.3704,+00.6436,+00.300,+00.070,-09.808,-00.000896,+00.001442,-00.001182*6E"
1679334428.0486543,5122,1679334428,2567028,imu1_frame,0,0,0,,0.006711221414905469,0.014366617304896346,-0.6590679169571562,0.7519162457694939,"(0.0, 0.0, 0.0, 0.0, 0.0, 0.0, 0.0, 0.0, 0.0)",-0.000981,-0.000716,-0.000301,"(0.0, 0.0, 0.0, 0.0, 0.0, 0.0, 0.0, 0.0, 0.0)",0.266,0.071,-9.678,"(0.0, 0.0, 0.0, 0.0, 0.0, 0.0, 0.0, 0.0, 0.0)",0,0,0,,0.0252,0.3762,0.6384,"(0.0, 0.0, 0.0, 0.0, 0.0, 0.0, 0.0, 0.0, 0.0)","$VNYMR,-082.478,+001.745,-000.507,+00.0252,+00.3762,+00.6384,+00.266,+00.071,-09.678,-00.000981,-00.000716,-00.000301*60"
1679334428.092303,5123,1679334428,5188107,imu1_frame,0,0,0,,0.006704534284722704,0.014372427265568113,-0.6590612298269736,0.7519220557301655,"(0.0, 0.0, 0.0, 0.0, 0.0, 0.0, 0.0, 0.0, 0.0)",-0.001652,0.000401,-0.00106,"(0.0, 0.0, 0.0, 0.0, 0.0, 0.0, 0.0, 0.0, 0.0)",0.192,0.103,-9.698,"(0.0, 0.0, 0.0, 0.0, 0.0, 0.0, 0.0, 0.0, 0.0)",0,0,0,,0.0451,0.37,0.6466,"(0.0, 0.0, 0.0, 0.0, 0.0, 0.0, 0.0, 0.0, 0.0)","$VNYMR,-082.477,+001.745,-000.508,+00.0451,+00.3700,+00.6466,+00.192,+00.103,-09.698,-00.001652,+00.000401,-00.001060*6E"
1679334428.0924664,5124,1679334428,7574725,imu1_frame,0,0,0,,0.006703724807243966,0.014384739638813749,-0.6590609876130687,0.7519220398058025,"(0.0, 0.0, 0.0, 0.0, 0.0, 0.0, 0.0, 0.0, 0.0)",0.001504,0.001434,1.5e-05,"(0.0, 0.0, 0.0, 0.0, 0.0, 0.0, 0.0, 0.0, 0.0)",0.317,0.117,-9.808,"(0.0, 0.0, 0.0, 0.0, 0.0, 0.0, 0.0, 0.0, 0.0)",0,0,0,,0.0241,0.3728,0.6384,"(0.0, 0.0, 0.0, 0.0, 0.0, 0.0, 0.0, 0.0, 0.0)","$VNYMR,-082.477,+001.746,-000.509,+00.0241,+00.3728,+00.6384,+00.317,+00.117,-09.808,+00.001504,+00.001434,+00.000015*63"
1679334428.136594,5125,1679334428,10207557,imu1_frame,0,0,0,,0.006703417877879768,0.01439681802317496,-0.6590869918128135,0.7518990178492709,"(0.0, 0.0, 0.0, 0.0, 0.0, 0.0, 0.0, 0.0, 0.0)",-0.000326,0.000743,-0.001355,"(0.0, 0.0, 0.0, 0.0, 0.0, 0.0, 0.0, 0.0, 0.0)",0.364,0.044,-9.775,"(0.0, 0.0, 0.0, 0.0, 0.0, 0.0, 0.0, 0.0, 0.0)",0,0,0,,0.0483,0.3722,0.6429,"(0.0, 0.0, 0.0, 0.0, 0.0, 0.0, 0.0, 0.0, 0.0)","$VNYMR,-082.481,+001.747,-000.510,+00.0483,+00.3722,+00.6429,+00.364,+00.044,-09.775,-00.000326,+00.000743,-00.001355*64"
1679334428.1366496,5126,1679334428,12557744,imu1_frame,0,0,0,,0.006701728614547046,0.014409539828396257,-0.6590408170425961,0.7519392618206195,"(0.0, 0.0, 0.0, 0.0, 0.0, 0.0, 0.0, 0.0, 0.0)",-0.000418,0.001692,-0.00039,"(0.0, 0.0, 0.0, 0.0, 0.0, 0.0, 0.0, 0.0, 0.0)",0.251,0.11,-9.643,"(0.0, 0.0, 0.0, 0.0, 0.0, 0.0, 0.0, 0.0, 0.0)",0,0,0,,0.023,0.3728,0.6371,"(0.0, 0.0, 0.0, 0.0, 0.0, 0.0, 0.0, 0.0, 0.0)","$VNYMR,-082.474,+001.748,-000.511,+00.0230,+00.3728,+00.6371,+00.251,+00.110,-09.643,-00.000418,+00.001692,-00.000390*63"
1679334428.1848662,5127,1679334428,15208029,imu1_frame,0,0,0,,0.006727166442708888,0.014398847303117326,-0.6590410772005338,0.7519390114832145,"(0.0, 0.0, 0.0, 0.0, 0.0, 0.0, 0.0, 0.0, 0.0)",0.001192,-0.000256,0.001344,"(0.0, 0.0, 0.0, 0.0, 0.0, 0.0, 0.0, 0.0, 0.0)",0.3,0.076,-9.783,"(0.0, 0.0, 0.0, 0.0, 0.0, 0.0, 0.0, 0.0, 0.0)",0,0,0,,0.0333,0.3634,0.6426,"(0.0, 0.0, 0.0, 0.0, 0.0, 0.0, 0.0, 0.0, 0.0)","$VNYMR,-082.474,+001.749,-000.508,+00.0333,+00.3634,+00.6426,+00.300,+00.076,-09.783,+00.001192,-00.000256,+00.001344*6D"
1679334428.184942,5128,1679334428,17572259,imu1_frame,0,0,0,,0.006738600816093589,0.014400068876608243,-0.6589951514172901,0.751979135138664,"(0.0, 0.0, 0.0, 0.0, 0.0, 0.0, 0.0, 0.0, 0.0)",0.00064,0.000476,0.000235,"(0.0, 0.0, 0.0, 0.0, 0.0, 0.0, 0.0, 0.0, 0.0)",0.369,0.034,-9.726,"(0.0, 0.0, 0.0, 0.0, 0.0, 0.0, 0.0, 0.0, 0.0)",0,0,0,,0.0439,0.3632,0.6429,"(0.0, 0.0, 0.0, 0.0, 0.0, 0.0, 0.0, 0.0, 0.0)","$VNYMR,-082.467,+001.750,-000.507,+00.0439,+00.3632,+00.6429,+00.369,+00.034,-09.726,+00.000640,+00.000476,+00.000235*67"
1679334428.2286756,5129,1679334428,20191097,imu1_frame,0,0,0,,0.006751291787057683,0.014400702794127293,-0.6590148467565149,0.7519617487430651,"(0.0, 0.0, 0.0, 0.0, 0.0, 0.0, 0.0, 0.0, 0.0)",-0.001109,0.001256,0.001345,"(0.0, 0.0, 0.0, 0.0, 0.0, 0.0, 0.0, 0.0, 0.0)",0.156,0.052,-9.563,"(0.0, 0.0, 0.0, 0.0, 0.0, 0.0, 0.0, 0.0, 0.0)",0,0,0,,0.024,0.3694,0.6359,"(0.0, 0.0, 0.0, 0.0, 0.0, 0.0, 0.0, 0.0, 0.0)","$VNYMR,-082.470,+001.751,-000.506,+00.0240,+00.3694,+00.6359,+00.156,+00.052,-09.563,-00.001109,+00.001256,+00.001345*67"
1679334428.2295563,5130,1679334428,22549581,imu1_frame,0,0,0,,0.006764541563601245,0.014389141781825657,-0.6590216600738791,0.7519558797759915,"(0.0, 0.0, 0.0, 0.0, 0.0, 0.0, 0.0, 0.0, 0.0)",0.001724,0.002508,0.000363,"(0.0, 0.0, 0.0, 0.0, 0.0, 0.0, 0.0, 0.0, 0.0)",0.293,0.012,-9.857,"(0.0, 0.0, 0.0, 0.0, 0.0, 0.0, 0.0, 0.0, 0.0)",0,0,0,,0.0462,0.3711,0.6378,"(0.0, 0.0, 0.0, 0.0, 0.0, 0.0, 0.0, 0.0, 0.0)","$VNYMR,-082.471,+001.751,-000.504,+00.0462,+00.3711,+00.6378,+00.293,+00.012,-09.857,+00.001724,+00.002508,+00.000363*6C"
1679334428.2728634,5131,1679334428,25328898,imu1_frame,0,0,0,,0.006765602607732709,0.014376711371129358,-0.6590350262927842,0.7519443934964704,"(0.0, 0.0, 0.0, 0.0, 0.0, 0.0, 0.0, 0.0, 0.0)",0.001295,-0.000681,-0.000333,"(0.0, 0.0, 0.0, 0.0, 0.0, 0.0, 0.0, 0.0, 0.0)",0.334,-0.0,-9.822,"(0.0, 0.0, 0.0, 0.0, 0.0, 0.0, 0.0, 0.0, 0.0)",0,0,0,,0.0263,0.3773,0.6333,"(0.0, 0.0, 0.0, 0.0, 0.0, 0.0, 0.0, 0.0, 0.0)","$VNYMR,-082.473,+001.750,-000.503,+00.0263,+00.3773,+00.6333,+00.334,-00.000,-09.822,+00.001295,-00.000681,-00.000333*65"
1679334428.317279,5132,1679334428,27649784,imu1_frame,0,0,0,,0.006760226769481719,0.014369973211635538,-0.6590548285474184,0.7519272146772287,"(0.0, 0.0, 0.0, 0.0, 0.0, 0.0, 0.0, 0.0, 0.0)",-0.003416,-0.000111,-0.001294,"(0.0, 0.0, 0.0, 0.0, 0.0, 0.0, 0.0, 0.0, 0.0)",0.256,0.026,-9.55,"(0.0, 0.0, 0.0, 0.0, 0.0, 0.0, 0.0, 0.0, 0.0)",0,0,0,,0.041,0.3735,0.6325,"(0.0, 0.0, 0.0, 0.0, 0.0, 0.0, 0.0, 0.0, 0.0)","$VNYMR,-082.476,+001.749,-000.503,+00.0410,+00.3735,+00.6325,+00.256,+00.026,-09.550,-00.003416,-00.000111,-00.001294*6A"
1679334428.3179946,5133,1679334428,30188918,imu1_frame,0,0,0,,0.006753722475849356,0.014363765822807545,-0.6590155733953097,0.7519617965605421,"(0.0, 0.0, 0.0, 0.0, 0.0, 0.0, 0.0, 0.0, 0.0)",-0.000242,-0.001186,-0.000802,"(0.0, 0.0, 0.0, 0.0, 0.0, 0.0, 0.0, 0.0, 0.0)",0.272,0.041,-9.888,"(0.0, 0.0, 0.0, 0.0, 0.0, 0.0, 0.0, 0.0, 0.0)",0,0,0,,0.0293,0.3715,0.6373,"(0.0, 0.0, 0.0, 0.0, 0.0, 0.0, 0.0, 0.0, 0.0)","$VNYMR,-082.470,+001.748,-000.503,+00.0293,+00.3715,+00.6373,+00.272,+00.041,-09.888,-00.000242,-00.001186,-00.000802*61"
1679334428.3648396,5134,1679334428,32626581,imu1_frame,0,0,0,,0.0067435294541372676,0.014338095430686136,-0.6590422959720545,0.7519389575954983,"(0.0, 0.0, 0.0, 0.0, 0.0, 0.0, 0.0, 0.0, 0.0)",0.001386,-0.002289,-0.001348,"(0.0, 0.0, 0.0, 0.0, 0.0, 0.0, 0.0, 0.0, 0.0)",0.319,0.018,-9.777,"(0.0, 0.0, 0.0, 0.0, 0.0, 0.0, 0.0, 0.0, 0.0)",0,0,0,,0.023,0.374,0.6345,"(0.0, 0.0, 0.0, 0.0, 0.0, 0.0, 0.0, 0.0, 0.0)","$VNYMR,-082.474,+001.745,-000.502,+00.0230,+00.3740,+00.6345,+00.319,+00.018,-09.777,+00.001386,-00.002289,-00.001348*6F"
1679334428.3649068,5135,1679334428,35176396,imu1_frame,0,0,0,,0.006749031195870017,0.014344774362975817,-0.6590290556994218,0.7519503851786508,"(0.0, 0.0, 0.0, 0.0, 0.0, 0.0, 0.0, 0.0, 0.0)",-0.001176,0.001847,-0.000305,"(0.0, 0.0, 0.0, 0.0, 0.0, 0.0, 0.0, 0.0, 0.0)",0.144,0.085,-9.623,"(0.0, 0.0, 0.0, 0.0, 0.0, 0.0, 0.0, 0.0, 0.0)",0,0,0,,0.0418,0.3655,0.6352,"(0.0, 0.0, 0.0, 0.0, 0.0, 0.0, 0.0, 0.0, 0.0)","$VNYMR,-082.472,+001.746,-000.502,+00.0418,+00.3655,+00.6352,+00.144,+00.085,-09.623,-00.001176,+00.001847,-00.000305*65"
1679334428.4085493,5136,1679334428,37621116,imu1_frame,0,0,0,,0.006734538147891527,0.01438078373428245,-0.6590414451500197,0.7519389686867519,"(0.0, 0.0, 0.0, 0.0, 0.0, 0.0, 0.0, 0.0, 0.0)",-0.001026,0.001867,-0.001212,"(0.0, 0.0, 0.0, 0.0, 0.0, 0.0, 0.0, 0.0, 0.0)",0.314,0.083,-9.825,"(0.0, 0.0, 0.0, 0.0, 0.0, 0.0, 0.0, 0.0, 0.0)",0,0,0,,0.0377,0.3679,0.6376,"(0.0, 0.0, 0.0, 0.0, 0.0, 0.0, 0.0, 0.0, 0.0)","$VNYMR,-082.474,+001.748,-000.506,+00.0377,+00.3679,+00.6376,+00.314,+00.083,-09.825,-00.001026,+00.001867,-00.001212*66"
1679334428.4105685,5137,1679334428,40200376,imu1_frame,0,0,0,,0.006740164699682293,0.014387403683802704,-0.6590347664776189,0.7519446451493957,"(0.0, 0.0, 0.0, 0.0, 0.0, 0.0, 0.0, 0.0, 0.0)",0.000111,0.000291,-0.000823,"(0.0, 0.0, 0.0, 0.0, 0.0, 0.0, 0.0, 0.0, 0.0)",0.369,0.046,-9.819,"(0.0, 0.0, 0.0, 0.0, 0.0, 0.0, 0.0, 0.0, 0.0)",0,0,0,,0.0388,0.3725,0.6363,"(0.0, 0.0, 0.0, 0.0, 0.0, 0.0, 0.0, 0.0, 0.0)","$VNYMR,-082.473,+001.749,-000.506,+00.0388,+00.3725,+00.6363,+00.369,+00.046,-09.819,+00.000111,+00.000291,-00.000823*69"
1679334428.452651,5138,1679334428,42642712,imu1_frame,0,0,0,,0.006740666910706039,0.01438716839890517,-0.6590610138958081,0.7519216400381693,"(0.0, 0.0, 0.0, 0.0, 0.0, 0.0, 0.0, 0.0, 0.0)",-0.000152,0.000194,0.000874,"(0.0, 0.0, 0.0, 0.0, 0.0, 0.0, 0.0, 0.0, 0.0)",0.223,0.08,-9.55,"(0.0, 0.0, 0.0, 0.0, 0.0, 0.0, 0.0, 0.0, 0.0)",0,0,0,,0.0282,0.3704,0.6373,"(0.0, 0.0, 0.0, 0.0, 0.0, 0.0, 0.0, 0.0, 0.0)","$VNYMR,-082.477,+001.749,-000.506,+00.0282,+00.3704,+00.6373,+00.223,+00.080,-09.550,-00.000152,+00.000194,+00.000874*62"
1679334428.4975283,5139,1679334428,45255780,imu1_frame,0,0,0,,0.00672779470453973,0.014398553761401346,-0.6590738861019741,0.7519102546756731,"(0.0, 0.0, 0.0, 0.0, 0.0, 0.0, 0.0, 0.0, 0.0)",-0.000486,0.000868,-0.000601,"(0.0, 0.0, 0.0, 0.0, 0.0, 0.0, 0.0, 0.0, 0.0)",0.27,0.112,-9.817,"(0.0, 0.0, 0.0, 0.0, 0.0, 0.0, 0.0, 0.0, 0.0)",0,0,0,,0.043,0.3712,0.6364,"(0.0, 0.0, 0.0, 0.0, 0.0, 0.0, 0.0, 0.0, 0.0)","$VNYMR,-082.479,+001.749,-000.508,+00.0430,+00.3712,+00.6364,+00.270,+00.112,-09.817,-00.000486,+00.000868,-00.000601*62"
1679334428.497651,5140,1679334428,47659945,imu1_frame,0,0,0,,0.006727166442708888,0.014398847303117326,-0.6590410772005338,0.7519390114832145,"(0.0, 0.0, 0.0, 0.0, 0.0, 0.0, 0.0, 0.0, 0.0)",0.001192,0.000401,-0.000102,"(0.0, 0.0, 0.0, 0.0, 0.0, 0.0, 0.0, 0.0, 0.0)",0.343,0.048,-9.765,"(0.0, 0.0, 0.0, 0.0, 0.0, 0.0, 0.0, 0.0, 0.0)",0,0,0,,0.0313,0.3681,0.6323,"(0.0, 0.0, 0.0, 0.0, 0.0, 0.0, 0.0, 0.0, 0.0)","$VNYMR,-082.474,+001.749,-000.508,+00.0313,+00.3681,+00.6323,+00.343,+00.048,-09.765,+00.001192,+00.000401,-00.000102*64"
1679334428.540342,5141,1679334428,51816868,imu1_frame,0,0,0,,0.00673948045367072,0.01439965721204185,-0.659041085979071,0.751938878012646,"(0.0, 0.0, 0.0, 0.0, 0.0, 0.0, 0.0, 0.0, 0.0)",-0.000705,-0.000487,-0.000723,"(0.0, 0.0, 0.0, 0.0, 0.0, 0.0, 0.0, 0.0, 0.0)",0.206,0.091,-9.584,"(0.0, 0.0, 0.0, 0.0, 0.0, 0.0, 0.0, 0.0, 0.0)",0,0,0,,0.0282,0.3704,0.6297,"(0.0, 0.0, 0.0, 0.0, 0.0, 0.0, 0.0, 0.0, 0.0)","$VNYMR,-082.474,+001.750,-000.507,+00.0282,+00.3704,+00.6297,+00.206,+00.091,-09.584,-00.000705,-00.000487,-00.000723*63"
1679334428.5404928,5142,1679334428,52622675,imu1_frame,0,0,0,,0.00674573542638927,0.014405982876958849,-0.6590672162931303,0.7519157978913132,"(0.0, 0.0, 0.0, 0.0, 0.0, 0.0, 0.0, 0.0, 0.0)",0.001495,0.000386,0.000578,"(0.0, 0.0, 0.0, 0.0, 0.0, 0.0, 0.0, 0.0, 0.0)",0.312,0.108,-9.749,"(0.0, 0.0, 0.0, 0.0, 0.0, 0.0, 0.0, 0.0, 0.0)",0,0,0,,0.0462,0.3711,0.639,"(0.0, 0.0, 0.0, 0.0, 0.0, 0.0, 0.0, 0.0, 0.0)","$VNYMR,-082.478,+001.751,-000.507,+00.0462,+00.3711,+00.6390,+00.312,+00.108,-09.749,+00.001495,+00.000386,+00.000578*65"
1679334428.584409,5143,1679334428,55163335,imu1_frame,0,0,0,,0.006752604261838649,0.01438815477299299,-0.6590413372001228,0.7519387602719954,"(0.0, 0.0, 0.0, 0.0, 0.0, 0.0, 0.0, 0.0, 0.0)",0.002398,0.000274,-0.000817,"(0.0, 0.0, 0.0, 0.0, 0.0, 0.0, 0.0, 0.0, 0.0)",0.394,-0.001,-9.825,"(0.0, 0.0, 0.0, 0.0, 0.0, 0.0, 0.0, 0.0, 0.0)",0,0,0,,0.0272,0.3727,0.6347,"(0.0, 0.0, 0.0, 0.0, 0.0, 0.0, 0.0, 0.0, 0.0)","$VNYMR,-082.474,+001.750,-000.505,+00.0272,+00.3727,+00.6347,+00.394,-00.001,-09.825,+00.002398,+00.000274,-00.000817*60"
1679334428.5844636,5144,1679334428,57637333,imu1_frame,0,0,0,,0.0067661044455088375,0.014376475198287839,-0.6590612737021887,0.7519213883761747,"(0.0, 0.0, 0.0, 0.0, 0.0, 0.0, 0.0, 0.0, 0.0)",-0.000853,-7.3e-05,-0.001064,"(0.0, 0.0, 0.0, 0.0, 0.0, 0.0, 0.0, 0.0, 0.0)",0.232,0.034,-9.565,"(0.0, 0.0, 0.0, 0.0, 0.0, 0.0, 0.0, 0.0, 0.0)",0,0,0,,0.043,0.3678,0.6301,"(0.0, 0.0, 0.0, 0.0, 0.0, 0.0, 0.0, 0.0, 0.0)","$VNYMR,-082.477,+001.750,-000.503,+00.0430,+00.3678,+00.6301,+00.232,+00.034,-09.565,-00.000853,-00.000073,-00.001064*6E"
1679334428.6286018,5145,1679334428,60175776,imu1_frame,0,0,0,,0.006771229134814611,0.014383331642798982,-0.6590283476450923,0.751950069636965,"(0.0, 0.0, 0.0, 0.0, 0.0, 0.0, 0.0, 0.0, 0.0)",-0.001323,0.000227,8.4e-05,"(0.0, 0.0, 0.0, 0.0, 0.0, 0.0, 0.0, 0.0, 0.0)",0.306,0.06,-9.825,"(0.0, 0.0, 0.0, 0.0, 0.0, 0.0, 0.0, 0.0, 0.0)",0,0,0,,0.0324,0.3692,0.6323,"(0.0, 0.0, 0.0, 0.0, 0.0, 0.0, 0.0, 0.0, 0.0)","$VNYMR,-082.472,+001.751,-000.503,+00.0324,+00.3692,+00.6323,+00.306,+00.060,-09.825,-00.001323,+00.000227,+00.000084*63"
1679334428.6302896,5146,1679334428,62617969,imu1_frame,0,0,0,,0.006759040654745965,0.01438246253612925,-0.6590349008072155,0.7519444525088591,"(0.0, 0.0, 0.0, 0.0, 0.0, 0.0, 0.0, 0.0, 0.0)",-0.00078,0.000509,-0.001082,"(0.0, 0.0, 0.0, 0.0, 0.0, 0.0, 0.0, 0.0, 0.0)",0.353,-0.005,-9.815,"(0.0, 0.0, 0.0, 0.0, 0.0, 0.0, 0.0, 0.0, 0.0)",0,0,0,,0.0221,0.3774,0.6294,"(0.0, 0.0, 0.0, 0.0, 0.0, 0.0, 0.0, 0.0, 0.0)","$VNYMR,-082.473,+001.750,-000.504,+00.0221,+00.3774,+00.6294,+00.353,-00.005,-09.815,-00.000780,+00.000509,-00.001082*64"
1679334428.672777,5147,1679334428,65187072,imu1_frame,0,0,0,,0.006765477147000576,0.014376770411602628,-0.6590284643149608,0.7519501446333857,"(0.0, 0.0, 0.0, 0.0, 0.0, 0.0, 0.0, 0.0, 0.0)",-0.001128,-0.000283,-0.001555,"(0.0, 0.0, 0.0, 0.0, 0.0, 0.0, 0.0, 0.0, 0.0)",0.26,0.014,-9.536,"(0.0, 0.0, 0.0, 0.0, 0.0, 0.0, 0.0, 0.0, 0.0)",0,0,0,,0.0452,0.3723,0.6377,"(0.0, 0.0, 0.0, 0.0, 0.0, 0.0, 0.0, 0.0, 0.0)","$VNYMR,-082.472,+001.750,-000.503,+00.0452,+00.3723,+00.6377,+00.260,+00.014,-09.536,-00.001128,-00.000283,-00.001555*6C"
1679334428.7178426,5148,1679334428,67648530,imu1_frame,0,0,0,,0.006772039149660234,0.014371019302771945,-0.6590285897508568,0.7519500855648279,"(0.0, 0.0, 0.0, 0.0, 0.0, 0.0, 0.0, 0.0, 0.0)",0.000916,0.000437,-0.000339,"(0.0, 0.0, 0.0, 0.0, 0.0, 0.0, 0.0, 0.0, 0.0)",0.255,0.082,-9.816,"(0.0, 0.0, 0.0, 0.0, 0.0, 0.0, 0.0, 0.0, 0.0)",0,0,0,,0.0261,0.3705,0.6359,"(0.0, 0.0, 0.0, 0.0, 0.0, 0.0, 0.0, 0.0, 0.0)","$VNYMR,-082.472,+001.750,-000.502,+00.0261,+00.3705,+00.6359,+00.255,+00.082,-09.816,+00.000916,+00.000437,-00.000339*65"
1679334428.7180715,5149,1679334428,70151495,imu1_frame,0,0,0,,0.006771354652804068,0.014383272552129902,-0.6590349096222612,0.7519443185010676,"(0.0, 0.0, 0.0, 0.0, 0.0, 0.0, 0.0, 0.0, 0.0)",0.000532,0.000966,0.000365,"(0.0, 0.0, 0.0, 0.0, 0.0, 0.0, 0.0, 0.0, 0.0)",0.399,0.003,-9.854,"(0.0, 0.0, 0.0, 0.0, 0.0, 0.0, 0.0, 0.0, 0.0)",0,0,0,,0.0461,0.3654,0.6366,"(0.0, 0.0, 0.0, 0.0, 0.0, 0.0, 0.0, 0.0, 0.0)","$VNYMR,-082.473,+001.751,-000.503,+00.0461,+00.3654,+00.6366,+00.399,+00.003,-09.854,+00.000532,+00.000966,+00.000365*69"
1679334428.7607853,5150,1679334428,72629570,imu1_frame,0,0,0,,0.006759417184418334,0.014382285579929925,-0.659054586441098,0.7519271987578169,"(0.0, 0.0, 0.0, 0.0, 0.0, 0.0, 0.0, 0.0, 0.0)",-0.002529,-1e-05,-0.000922,"(0.0, 0.0, 0.0, 0.0, 0.0, 0.0, 0.0, 0.0, 0.0)",0.229,0.049,-9.573,"(0.0, 0.0, 0.0, 0.0, 0.0, 0.0, 0.0, 0.0, 0.0)",0,0,0,,0.022,0.3729,0.6332,"(0.0, 0.0, 0.0, 0.0, 0.0, 0.0, 0.0, 0.0, 0.0)","$VNYMR,-082.476,+001.750,-000.504,+00.0220,+00.3729,+00.6332,+00.229,+00.049,-09.573,-00.002529,-00.000010,-00.000922*60"
1679334428.7608755,5151,1679334428,75165390,imu1_frame,0,0,0,,0.006746921619105667,0.014393493873932676,-0.6590871437136239,0.7518985592313524,"(0.0, 0.0, 0.0, 0.0, 0.0, 0.0, 0.0, 0.0, 0.0)",-0.000573,-0.000469,-0.000419,"(0.0, 0.0, 0.0, 0.0, 0.0, 0.0, 0.0, 0.0, 0.0)",0.287,0.096,-9.736,"(0.0, 0.0, 0.0, 0.0, 0.0, 0.0, 0.0, 0.0, 0.0)",0,0,0,,0.0347,0.3748,0.6336,"(0.0, 0.0, 0.0, 0.0, 0.0, 0.0, 0.0, 0.0, 0.0)","$VNYMR,-082.481,+001.750,-000.506,+00.0347,+00.3748,+00.6336,+00.287,+00.096,-09.736,-00.000573,-00.000469,-00.000419*6E"
1679334428.8044672,5152,1679334428,77645611,imu1_frame,0,0,0,,0.006727669053198224,0.014398612471937588,-0.6590673244220668,0.7519160061517057,"(0.0, 0.0, 0.0, 0.0, 0.0, 0.0, 0.0, 0.0, 0.0)",-0.002031,0.001348,-0.000854,"(0.0, 0.0, 0.0, 0.0, 0.0, 0.0, 0.0, 0.0, 0.0)",0.327,0.048,-9.837,"(0.0, 0.0, 0.0, 0.0, 0.0, 0.0, 0.0, 0.0, 0.0)",0,0,0,,0.046,0.3643,0.6328,"(0.0, 0.0, 0.0, 0.0, 0.0, 0.0, 0.0, 0.0, 0.0)","$VNYMR,-082.478,+001.749,-000.508,+00.0460,+00.3643,+00.6328,+00.327,+00.048,-09.837,-00.002031,+00.001348,-00.000854*68"
1679334428.8073745,5153,1679334428,80157899,imu1_frame,0,0,0,,0.006725492892449012,0.014435432194967738,-0.6590797191546999,0.7519044552612121,"(0.0, 0.0, 0.0, 0.0, 0.0, 0.0, 0.0, 0.0, 0.0)",-0.003057,0.00079,-0.001325,"(0.0, 0.0, 0.0, 0.0, 0.0, 0.0, 0.0, 0.0, 0.0)",0.252,0.052,-9.576,"(0.0, 0.0, 0.0, 0.0, 0.0, 0.0, 0.0, 0.0, 0.0)",0,0,0,,0.021,0.3775,0.6281,"(0.0, 0.0, 0.0, 0.0, 0.0, 0.0, 0.0, 0.0, 0.0)","$VNYMR,-082.480,+001.752,-000.511,+00.0210,+00.3775,+00.6281,+00.252,+00.052,-09.576,-00.003057,+00.000790,-00.001325*67"
1679334428.848525,5154,1679334428,82621717,imu1_frame,0,0,0,,0.00671786987226216,0.014453613372259443,-0.6590662264509356,0.751916000918047,"(0.0, 0.0, 0.0, 0.0, 0.0, 0.0, 0.0, 0.0, 0.0)",-0.00088,0.001446,0.000796,"(0.0, 0.0, 0.0, 0.0, 0.0, 0.0, 0.0, 0.0, 0.0)",0.271,0.134,-9.734,"(0.0, 0.0, 0.0, 0.0, 0.0, 0.0, 0.0, 0.0, 0.0)",0,0,0,,0.0453,0.3757,0.6339,"(0.0, 0.0, 0.0, 0.0, 0.0, 0.0, 0.0, 0.0, 0.0)","$VNYMR,-082.478,+001.753,-000.513,+00.0453,+00.3757,+00.6339,+00.271,+00.134,-09.734,-00.000880,+00.001446,+00.000796*67"
1679334428.8925338,5155,1679334428,85157942,imu1_frame,0,0,0,,0.006718427191488695,0.014441418276132451,-0.6590533463363075,0.7519275196833546,"(0.0, 0.0, 0.0, 0.0, 0.0, 0.0, 0.0, 0.0, 0.0)",0.002237,-0.000959,-0.000887,"(0.0, 0.0, 0.0, 0.0, 0.0, 0.0, 0.0, 0.0, 0.0)",0.385,0.027,-9.827,"(0.0, 0.0, 0.0, 0.0, 0.0, 0.0, 0.0, 0.0, 0.0)",0,0,0,,0.0316,0.3772,0.6284,"(0.0, 0.0, 0.0, 0.0, 0.0, 0.0, 0.0, 0.0, 0.0)","$VNYMR,-082.476,+001.752,-000.512,+00.0316,+00.3772,+00.6284,+00.385,+00.027,-09.827,+00.002237,-00.000959,-00.000887*64"
1679334428.8925927,5156,1679334428,87628650,imu1_frame,0,0,0,,0.006720549596046628,0.014416558994997658,-0.6590800793044702,0.751904545872602,"(0.0, 0.0, 0.0, 0.0, 0.0, 0.0, 0.0, 0.0, 0.0)",-0.000378,-0.002228,1.7e-05,"(0.0, 0.0, 0.0, 0.0, 0.0, 0.0, 0.0, 0.0, 0.0)",0.231,0.039,-9.562,"(0.0, 0.0, 0.0, 0.0, 0.0, 0.0, 0.0, 0.0, 0.0)",0,0,0,,0.042,0.3735,0.6313,"(0.0, 0.0, 0.0, 0.0, 0.0, 0.0, 0.0, 0.0, 0.0)","$VNYMR,-082.480,+001.750,-000.510,+00.0420,+00.3735,+00.6313,+00.231,+00.039,-09.562,-00.000378,-00.002228,+00.000017*68"
1679334428.936327,5157,1679334428,90146255,imu1_frame,0,0,0,,0.006713232831179979,0.014422662076976914,-0.6590405829347014,0.7519391128067863,"(0.0, 0.0, 0.0, 0.0, 0.0, 0.0, 0.0, 0.0, 0.0)",-0.000244,-0.000852,0.001205,"(0.0, 0.0, 0.0, 0.0, 0.0, 0.0, 0.0, 0.0, 0.0)",0.276,0.136,-9.744,"(0.0, 0.0, 0.0, 0.0, 0.0, 0.0, 0.0, 0.0, 0.0)",0,0,0,,0.0315,0.3726,0.631,"(0.0, 0.0, 0.0, 0.0, 0.0, 0.0, 0.0, 0.0, 0.0)","$VNYMR,-082.474,+001.750,-000.511,+00.0315,+00.3726,+00.6310,+00.276,+00.136,-09.744,-00.000244,-00.000852,+00.001205*62"
1679334428.9363987,5158,1679334428,92616343,imu1_frame,0,0,0,,0.006714168383929365,0.014410291146003002,-0.6590473876745536,0.7519333775351021,"(0.0, 0.0, 0.0, 0.0, 0.0, 0.0, 0.0, 0.0, 0.0)",0.001069,0.001004,0.000233,"(0.0, 0.0, 0.0, 0.0, 0.0, 0.0, 0.0, 0.0, 0.0)",0.355,0.018,-9.748,"(0.0, 0.0, 0.0, 0.0, 0.0, 0.0, 0.0, 0.0, 0.0)",0,0,0,,0.0304,0.3715,0.6259,"(0.0, 0.0, 0.0, 0.0, 0.0, 0.0, 0.0, 0.0, 0.0)","$VNYMR,-082.475,+001.749,-000.510,+00.0304,+00.3715,+00.6259,+00.355,+00.018,-09.748,+00.001069,+00.001004,+00.000233*65"
1679334428.980934,5159,1679334428,95163249,imu1_frame,0,0,0,,0.006731731292342735,0.014417897012644704,-0.6590210316017854,0.7519561742189891,"(0.0, 0.0, 0.0, 0.0, 0.0, 0.0, 0.0, 0.0, 0.0)",-0.001155,-0.000338,-0.000504,"(0.0, 0.0, 0.0, 0.0, 0.0, 0.0, 0.0, 0.0, 0.0)",0.173,-0.011,-9.607,"(0.0, 0.0, 0.0, 0.0, 0.0, 0.0, 0.0, 0.0, 0.0)",0,0,0,,0.0399,0.3724,0.6338,"(0.0, 0.0, 0.0, 0.0, 0.0, 0.0, 0.0, 0.0, 0.0)","$VNYMR,-082.471,+001.751,-000.509,+00.0399,+00.3724,+00.6338,+00.173,-00.011,-09.607,-00.001155,-00.000338,-00.000504*65"
1679334428.9824505,5160,1679334428,97631597,imu1_frame,0,0,0,,0.006736799089601588,0.014436711811612688,-0.659027233495853,0.7519503324029435,"(0.0, 0.0, 0.0, 0.0, 0.0, 0.0, 0.0, 0.0, 0.0)",-0.002036,-0.000241,0.0003,"(0.0, 0.0, 0.0, 0.0, 0.0, 0.0, 0.0, 0.0, 0.0)",0.259,0.072,-9.849,"(0.0, 0.0, 0.0, 0.0, 0.0, 0.0, 0.0, 0.0, 0.0)",0,0,0,,0.0336,0.3737,0.6361,"(0.0, 0.0, 0.0, 0.0, 0.0, 0.0, 0.0, 0.0, 0.0)","$VNYMR,-082.472,+001.753,-000.510,+00.0336,+00.3737,+00.6361,+00.259,+00.072,-09.849,-00.002036,-00.000241,+00.000300*67"
1679334429.0246146,5161,1679334429,146579,imu1_frame,0,0,0,,0.006723296823802044,0.014448390024948693,-0.6590072951847376,0.7519677028960768,"(0.0, 0.0, 0.0, 0.0, 0.0, 0.0, 0.0, 0.0, 0.0)",-0.001505,0.001823,-0.00069,"(0.0, 0.0, 0.0, 0.0, 0.0, 0.0, 0.0, 0.0, 0.0)",0.299,-0.046,-9.854,"(0.0, 0.0, 0.0, 0.0, 0.0, 0.0, 0.0, 0.0, 0.0)",0,0,0,,0.0429,0.3678,0.6352,"(0.0, 0.0, 0.0, 0.0, 0.0, 0.0, 0.0, 0.0, 0.0)","$VNYMR,-082.469,+001.753,-000.512,+00.0429,+00.3678,+00.6352,+00.299,-00.046,-09.854,-00.001505,+00.001823,-00.000690*68"
1679334429.0729454,5162,1679334429,2599954,imu1_frame,0,0,0,,0.006722738874276947,0.014460584984494531,-0.6590201758942349,0.7519561849125695,"(0.0, 0.0, 0.0, 0.0, 0.0, 0.0, 0.0, 0.0, 0.0)",-0.001218,0.000352,-0.000526,"(0.0, 0.0, 0.0, 0.0, 0.0, 0.0, 0.0, 0.0, 0.0)",0.285,0.044,-9.578,"(0.0, 0.0, 0.0, 0.0, 0.0, 0.0, 0.0, 0.0, 0.0)",0,0,0,,0.0242,0.3774,0.6332,"(0.0, 0.0, 0.0, 0.0, 0.0, 0.0, 0.0, 0.0, 0.0)","$VNYMR,-082.471,+001.754,-000.513,+00.0242,+00.3774,+00.6332,+00.285,+00.044,-09.578,-00.001218,+00.000352,-00.000526*64"
1679334429.073067,5163,1679334429,5134391,imu1_frame,0,0,0,,0.006721624259264508,0.014484974962436612,-0.6590459360646286,0.7519331482414858,"(0.0, 0.0, 0.0, 0.0, 0.0, 0.0, 0.0, 0.0, 0.0)",-0.001803,0.001902,-6.3e-05,"(0.0, 0.0, 0.0, 0.0, 0.0, 0.0, 0.0, 0.0, 0.0)",0.315,0.102,-9.731,"(0.0, 0.0, 0.0, 0.0, 0.0, 0.0, 0.0, 0.0, 0.0)",0,0,0,,0.0273,0.3739,0.6347,"(0.0, 0.0, 0.0, 0.0, 0.0, 0.0, 0.0, 0.0, 0.0)","$VNYMR,-082.475,+001.756,-000.515,+00.0273,+00.3739,+00.6347,+00.315,+00.102,-09.731,-00.001803,+00.001902,-00.000063*63"
1679334429.1175773,5164,1679334429,7605862,imu1_frame,0,0,0,,0.0066904860367018645,0.01447714462892481,-0.6590066641274653,0.7519679955394218,"(0.0, 0.0, 0.0, 0.0, 0.0, 0.0, 0.0, 0.0, 0.0)",-0.000931,-0.002005,0.00013,"(0.0, 0.0, 0.0, 0.0, 0.0, 0.0, 0.0, 0.0, 0.0)",0.303,0.042,-9.856,"(0.0, 0.0, 0.0, 0.0, 0.0, 0.0, 0.0, 0.0, 0.0)",0,0,0,,0.0461,0.3677,0.6327,"(0.0, 0.0, 0.0, 0.0, 0.0, 0.0, 0.0, 0.0, 0.0)","$VNYMR,-082.469,+001.753,-000.517,+00.0461,+00.3677,+00.6327,+00.303,+00.042,-09.856,-00.000931,-00.002005,+00.000130*66"
1679334429.1177864,5165,1679334429,10177588,imu1_frame,0,0,0,,0.006718607180247277,0.014429399097289491,-0.6590207798616368,0.7519562915953352,"(0.0, 0.0, 0.0, 0.0, 0.0, 0.0, 0.0, 0.0, 0.0)",-0.000852,0.001278,-0.000801,"(0.0, 0.0, 0.0, 0.0, 0.0, 0.0, 0.0, 0.0, 0.0)",0.35,0.056,-9.401,"(0.0, 0.0, 0.0, 0.0, 0.0, 0.0, 0.0, 0.0, 0.0)",0,0,0,,0.023,0.3728,0.6345,"(0.0, 0.0, 0.0, 0.0, 0.0, 0.0, 0.0, 0.0, 0.0)","$VNYMR,-082.471,+001.751,-000.511,+00.0230,+00.3728,+00.6345,+00.350,+00.056,-09.401,-00.000852,+00.001278,-00.000801*6F"
1679334429.1648638,5166,1679334429,12592434,imu1_frame,0,0,0,,0.006747479666667304,0.014381299242479422,-0.6590742628293692,0.7519100782847442,"(0.0, 0.0, 0.0, 0.0, 0.0, 0.0, 0.0, 0.0, 0.0)",0.001873,-0.00033,-0.00104,"(0.0, 0.0, 0.0, 0.0, 0.0, 0.0, 0.0, 0.0, 0.0)",0.488,0.173,-9.416,"(0.0, 0.0, 0.0, 0.0, 0.0, 0.0, 0.0, 0.0, 0.0)",0,0,0,,0.044,0.3689,0.6365,"(0.0, 0.0, 0.0, 0.0, 0.0, 0.0, 0.0, 0.0, 0.0)","$VNYMR,-082.479,+001.749,-000.505,+00.0440,+00.3689,+00.6365,+00.488,+00.173,-09.416,+00.001873,-00.000330,-00.001040*62"
1679334429.1649327,5167,1679334429,15135455,imu1_frame,0,0,0,,0.00674573542638927,0.014405982876958849,-0.6590672162931303,0.7519157978913132,"(0.0, 0.0, 0.0, 0.0, 0.0, 0.0, 0.0, 0.0, 0.0)",-0.003162,0.003761,-0.001031,"(0.0, 0.0, 0.0, 0.0, 0.0, 0.0, 0.0, 0.0, 0.0)",0.506,0.083,-9.892,"(0.0, 0.0, 0.0, 0.0, 0.0, 0.0, 0.0, 0.0, 0.0)",0,0,0,,0.0303,0.3681,0.6335,"(0.0, 0.0, 0.0, 0.0, 0.0, 0.0, 0.0, 0.0, 0.0)","$VNYMR,-082.478,+001.751,-000.507,+00.0303,+00.3681,+00.6335,+00.506,+00.083,-09.892,-00.003162,+00.003761,-00.001031*62"
1679334429.2094862,5168,1679334429,17601680,imu1_frame,0,0,0,,0.00672400077277577,0.014459998259792911,-0.6590857939410759,0.7518986716898736,"(0.0, 0.0, 0.0, 0.0, 0.0, 0.0, 0.0, 0.0, 0.0)",-0.004004,0.003985,-0.000599,"(0.0, 0.0, 0.0, 0.0, 0.0, 0.0, 0.0, 0.0, 0.0)",0.443,0.082,-9.433,"(0.0, 0.0, 0.0, 0.0, 0.0, 0.0, 0.0, 0.0, 0.0)",0,0,0,,0.0398,0.369,0.6351,"(0.0, 0.0, 0.0, 0.0, 0.0, 0.0, 0.0, 0.0, 0.0)","$VNYMR,-082.481,+001.754,-000.513,+00.0398,+00.3690,+00.6351,+00.443,+00.082,-09.433,-00.004004,+00.003985,-00.000599*66"
1679334429.2095597,5169,1679334429,20124220,imu1_frame,0,0,0,,0.006718122134381112,0.014453496121110044,-0.6590793497604679,0.7519044979278839,"(0.0, 0.0, 0.0, 0.0, 0.0, 0.0, 0.0, 0.0, 0.0)",0.00098,-0.001269,0.000512,"(0.0, 0.0, 0.0, 0.0, 0.0, 0.0, 0.0, 0.0, 0.0)",0.276,0.154,-9.679,"(0.0, 0.0, 0.0, 0.0, 0.0, 0.0, 0.0, 0.0, 0.0)",0,0,0,,0.0271,0.3659,0.6373,"(0.0, 0.0, 0.0, 0.0, 0.0, 0.0, 0.0, 0.0, 0.0)","$VNYMR,-082.480,+001.753,-000.513,+00.0271,+00.3659,+00.6373,+00.276,+00.154,-09.679,+00.000980,-00.001269,+00.000512*6A"
1679334429.2529216,5170,1679334429,22576260,imu1_frame,0,0,0,,0.006733115280082707,0.014417250746402805,-0.6590932111762311,0.7518929092769424,"(0.0, 0.0, 0.0, 0.0, 0.0, 0.0, 0.0, 0.0, 0.0)",0.00111,4.3e-05,0.000127,"(0.0, 0.0, 0.0, 0.0, 0.0, 0.0, 0.0, 0.0, 0.0)",0.366,0.019,-9.788,"(0.0, 0.0, 0.0, 0.0, 0.0, 0.0, 0.0, 0.0, 0.0)",0,0,0,,0.0219,0.3694,0.6358,"(0.0, 0.0, 0.0, 0.0, 0.0, 0.0, 0.0, 0.0, 0.0)","$VNYMR,-082.482,+001.751,-000.509,+00.0219,+00.3694,+00.6358,+00.366,+00.019,-09.788,+00.001110,+00.000043,+00.000127*6F"
1679334429.2578204,5171,1679334429,25117230,imu1_frame,0,0,0,,0.006744116687992966,0.014430607612177942,-0.6590667305756938,0.7519157659620577,"(0.0, 0.0, 0.0, 0.0, 0.0, 0.0, 0.0, 0.0, 0.0)",-0.000931,0.001051,0.00116,"(0.0, 0.0, 0.0, 0.0, 0.0, 0.0, 0.0, 0.0, 0.0)",0.194,0.051,-9.65,"(0.0, 0.0, 0.0, 0.0, 0.0, 0.0, 0.0, 0.0, 0.0)",0,0,0,,0.043,0.3689,0.6326,"(0.0, 0.0, 0.0, 0.0, 0.0, 0.0, 0.0, 0.0, 0.0)","$VNYMR,-082.478,+001.753,-000.509,+00.0430,+00.3689,+00.6326,+00.194,+00.051,-09.650,-00.000931,+00.001051,+00.001160*6B"
1679334429.3004322,5172,1679334429,27598071,imu1_frame,0,0,0,,0.006736745616188989,0.014448671412972989,-0.6590663613312897,0.7519158087940675,"(0.0, 0.0, 0.0, 0.0, 0.0, 0.0, 0.0, 0.0, 0.0)",0.000106,-0.000893,-0.000722,"(0.0, 0.0, 0.0, 0.0, 0.0, 0.0, 0.0, 0.0, 0.0)",0.241,0.082,-9.755,"(0.0, 0.0, 0.0, 0.0, 0.0, 0.0, 0.0, 0.0, 0.0)",0,0,0,,0.0261,0.3682,0.6322,"(0.0, 0.0, 0.0, 0.0, 0.0, 0.0, 0.0, 0.0, 0.0)","$VNYMR,-082.478,+001.754,-000.511,+00.0261,+00.3682,+00.6322,+00.241,+00.082,-09.755,+00.000106,-00.000893,-00.000722*65"
1679334429.3445597,5173,1679334429,30151081,imu1_frame,0,0,0,,0.0067395510189597755,0.014411557886774073,-0.6590867754373539,0.7518986021365712,"(0.0, 0.0, 0.0, 0.0, 0.0, 0.0, 0.0, 0.0, 0.0)",0.002363,-7.1e-05,-0.000766,"(0.0, 0.0, 0.0, 0.0, 0.0, 0.0, 0.0, 0.0, 0.0)",0.341,-0.014,-9.844,"(0.0, 0.0, 0.0, 0.0, 0.0, 0.0, 0.0, 0.0, 0.0)",0,0,0,,0.0472,0.37,0.6391,"(0.0, 0.0, 0.0, 0.0, 0.0, 0.0, 0.0, 0.0, 0.0)","$VNYMR,-082.481,+001.751,-000.508,+00.0472,+00.3700,+00.6391,+00.341,-00.014,-09.844,+00.002363,-00.000071,-00.000766*69"
1679334429.344884,5174,1679334429,32586359,imu1_frame,0,0,0,,0.006746363999550581,0.014405688525011315,-0.6591000241816618,0.7518870399432608,"(0.0, 0.0, 0.0, 0.0, 0.0, 0.0, 0.0, 0.0, 0.0)",-0.003032,-0.000207,-0.000306,"(0.0, 0.0, 0.0, 0.0, 0.0, 0.0, 0.0, 0.0, 0.0)",0.26,0.009,-9.603,"(0.0, 0.0, 0.0, 0.0, 0.0, 0.0, 0.0, 0.0, 0.0)",0,0,0,,0.0282,0.3704,0.6297,"(0.0, 0.0, 0.0, 0.0, 0.0, 0.0, 0.0, 0.0, 0.0)","$VNYMR,-082.483,+001.751,-000.507,+00.0282,+00.3704,+00.6297,+00.260,+00.009,-09.603,-00.003032,-00.000207,-00.000306*6A"
1679334429.3886988,5175,1679334429,35183930,imu1_frame,0,0,0,,0.006744441642695918,0.014442390310762287,-0.6591255406867573,0.751863984696321,"(0.0, 0.0, 0.0, 0.0, 0.0, 0.0, 0.0, 0.0, 0.0)",-0.00184,0.002582,-0.001204,"(0.0, 0.0, 0.0, 0.0, 0.0, 0.0, 0.0, 0.0, 0.0)",0.269,0.062,-9.751,"(0.0, 0.0, 0.0, 0.0, 0.0, 0.0, 0.0, 0.0, 0.0)",0,0,0,,0.0377,0.3702,0.635,"(0.0, 0.0, 0.0, 0.0, 0.0, 0.0, 0.0, 0.0, 0.0)","$VNYMR,-082.487,+001.754,-000.510,+00.0377,+00.3702,+00.6350,+00.269,+00.062,-09.751,-00.001840,+00.002582,-00.001204*6B"
1679334429.388784,5176,1679334429,37686252,imu1_frame,0,0,0,,0.006739497194942804,0.014423517416092766,-0.6591259009926481,0.7518640754574837,"(0.0, 0.0, 0.0, 0.0, 0.0, 0.0, 0.0, 0.0, 0.0)",0.001542,0.000288,-0.000234,"(0.0, 0.0, 0.0, 0.0, 0.0, 0.0, 0.0, 0.0, 0.0)",0.315,-0.017,-9.79,"(0.0, 0.0, 0.0, 0.0, 0.0, 0.0, 0.0, 0.0, 0.0)",0,0,0,,0.0451,0.3689,0.639,"(0.0, 0.0, 0.0, 0.0, 0.0, 0.0, 0.0, 0.0, 0.0)","$VNYMR,-082.487,+001.752,-000.509,+00.0451,+00.3689,+00.6390,+00.315,-00.017,-09.790,+00.001542,+00.000288,-00.000234*6F"
1679334429.4334276,5177,1679334429,40164971,imu1_frame,0,0,0,,0.006745806808002721,0.014417883195700351,-0.6591129042334777,0.7518755204204846,"(0.0, 0.0, 0.0, 0.0, 0.0, 0.0, 0.0, 0.0, 0.0)",-0.000314,0.000493,-0.001264,"(0.0, 0.0, 0.0, 0.0, 0.0, 0.0, 0.0, 0.0, 0.0)",0.258,-0.001,-9.599,"(0.0, 0.0, 0.0, 0.0, 0.0, 0.0, 0.0, 0.0, 0.0)",0,0,0,,0.023,0.3728,0.6333,"(0.0, 0.0, 0.0, 0.0, 0.0, 0.0, 0.0, 0.0, 0.0)","$VNYMR,-082.485,+001.752,-000.508,+00.0230,+00.3728,+00.6333,+00.258,-00.001,-09.599,-00.000314,+00.000493,-00.001264*60"
1679334429.4335327,5178,1679334429,42573165,imu1_frame,0,0,0,,0.00673712387921334,0.014448495040433721,-0.6590860462152708,0.7518985542194006,"(0.0, 0.0, 0.0, 0.0, 0.0, 0.0, 0.0, 0.0, 0.0)",-0.002657,0.001756,0.000793,"(0.0, 0.0, 0.0, 0.0, 0.0, 0.0, 0.0, 0.0, 0.0)",0.286,0.089,-9.694,"(0.0, 0.0, 0.0, 0.0, 0.0, 0.0, 0.0, 0.0, 0.0)",0,0,0,,0.0462,0.37,0.6327,"(0.0, 0.0, 0.0, 0.0, 0.0, 0.0, 0.0, 0.0, 0.0)","$VNYMR,-082.481,+001.754,-000.511,+00.0462,+00.3700,+00.6327,+00.286,+00.089,-09.694,-00.002657,+00.001756,+00.000793*6E"
1679334429.47699,5179,1679334429,45109724,imu1_frame,0,0,0,,0.006724126959809472,0.01445993958126612,-0.6590923554697109,0.7518929200526647,"(0.0, 0.0, 0.0, 0.0, 0.0, 0.0, 0.0, 0.0, 0.0)",-0.000184,-0.000236,-0.000357,"(0.0, 0.0, 0.0, 0.0, 0.0, 0.0, 0.0, 0.0, 0.0)",0.345,0.041,-9.852,"(0.0, 0.0, 0.0, 0.0, 0.0, 0.0, 0.0, 0.0, 0.0)",0,0,0,,0.024,0.3705,0.6308,"(0.0, 0.0, 0.0, 0.0, 0.0, 0.0, 0.0, 0.0, 0.0)","$VNYMR,-082.482,+001.754,-000.513,+00.0240,+00.3705,+00.6308,+00.345,+00.041,-09.852,-00.000184,-00.000236,-00.000357*6A"
1679334429.4795659,5180,1679334429,47554993,imu1_frame,0,0,0,,0.006731193005330994,0.014453952960721602,-0.6591187272419503,0.7518698542191233,"(0.0, 0.0, 0.0, 0.0, 0.0, 0.0, 0.0, 0.0, 0.0)",0.000495,-0.00095,-0.000501,"(0.0, 0.0, 0.0, 0.0, 0.0, 0.0, 0.0, 0.0, 0.0)",0.237,0.037,-9.651,"(0.0, 0.0, 0.0, 0.0, 0.0, 0.0, 0.0, 0.0, 0.0)",0,0,0,,0.044,0.3678,0.6339,"(0.0, 0.0, 0.0, 0.0, 0.0, 0.0, 0.0, 0.0, 0.0)","$VNYMR,-082.486,+001.754,-000.512,+00.0440,+00.3678,+00.6339,+00.237,+00.037,-09.651,+00.000495,-00.000950,-00.000501*65"
1679334429.5203872,5181,1679334429,50260710,imu1_frame,0,0,0,,0.0067230654320395225,0.014472369301968047,-0.6590789886436861,0.7519044072529432,"(0.0, 0.0, 0.0, 0.0, 0.0, 0.0, 0.0, 0.0, 0.0)",-0.001894,0.002052,-5.1e-05,"(0.0, 0.0, 0.0, 0.0, 0.0, 0.0, 0.0, 0.0, 0.0)",0.296,0.116,-9.691,"(0.0, 0.0, 0.0, 0.0, 0.0, 0.0, 0.0, 0.0, 0.0)",0,0,0,,0.0272,0.3716,0.6347,"(0.0, 0.0, 0.0, 0.0, 0.0, 0.0, 0.0, 0.0, 0.0)","$VNYMR,-082.480,+001.755,-000.514,+00.0272,+00.3716,+00.6347,+00.296,+00.116,-09.691,-00.001894,+00.002052,-00.000051*63"
1679334429.5661838,5182,1679334429,52557802,imu1_frame,0,0,0,,0.0067037599535581405,0.014489448445520591,-0.6590982941221676,0.7518873281093906,"(0.0, 0.0, 0.0, 0.0, 0.0, 0.0, 0.0, 0.0, 0.0)",0.000437,0.000723,-0.000516,"(0.0, 0.0, 0.0, 0.0, 0.0, 0.0, 0.0, 0.0, 0.0)",0.335,0.101,-9.792,"(0.0, 0.0, 0.0, 0.0, 0.0, 0.0, 0.0, 0.0, 0.0)",0,0,0,,0.0251,0.3717,0.6321,"(0.0, 0.0, 0.0, 0.0, 0.0, 0.0, 0.0, 0.0, 0.0)","$VNYMR,-082.483,+001.755,-000.517,+00.0251,+00.3717,+00.6321,+00.335,+00.101,-09.792,+00.000437,+00.000723,-00.000516*68"
1679334429.566193,5183,1679334429,55186033,imu1_frame,0,0,0,,0.006710625087919402,0.014471618599454134,-0.6590724182562196,0.7519102920295346,"(0.0, 0.0, 0.0, 0.0, 0.0, 0.0, 0.0, 0.0, 0.0)",0.000134,-0.001909,0.000669,"(0.0, 0.0, 0.0, 0.0, 0.0, 0.0, 0.0, 0.0, 0.0)",0.282,0.044,-9.651,"(0.0, 0.0, 0.0, 0.0, 0.0, 0.0, 0.0, 0.0, 0.0)",0,0,0,,0.0461,0.3666,0.6391,"(0.0, 0.0, 0.0, 0.0, 0.0, 0.0, 0.0, 0.0, 0.0)","$VNYMR,-082.479,+001.754,-000.515,+00.0461,+00.3666,+00.6391,+00.282,+00.044,-09.651,+00.000134,-00.001909,+00.000669*6E"
1679334429.6090808,5184,1679334429,57650756,imu1_frame,0,0,0,,0.006710877664289952,0.014471501474747338,-0.6590855414661119,0.7518987889313052,"(0.0, 0.0, 0.0, 0.0, 0.0, 0.0, 0.0, 0.0, 0.0)",0.000874,0.000454,-0.000306,"(0.0, 0.0, 0.0, 0.0, 0.0, 0.0, 0.0, 0.0, 0.0)",0.275,0.165,-9.738,"(0.0, 0.0, 0.0, 0.0, 0.0, 0.0, 0.0, 0.0, 0.0)",0,0,0,,0.0271,0.3693,0.6372,"(0.0, 0.0, 0.0, 0.0, 0.0, 0.0, 0.0, 0.0, 0.0)","$VNYMR,-082.481,+001.754,-000.515,+00.0271,+00.3693,+00.6372,+00.275,+00.165,-09.738,+00.000874,+00.000454,-00.000306*68"
1679334429.6092157,5185,1679334429,60183358,imu1_frame,0,0,0,,0.00669268486504542,0.014464189959048022,-0.6590790886627508,0.751904748000439,"(0.0, 0.0, 0.0, 0.0, 0.0, 0.0, 0.0, 0.0, 0.0)",0.00109,0.000543,-0.000692,"(0.0, 0.0, 0.0, 0.0, 0.0, 0.0, 0.0, 0.0, 0.0)",0.352,0.088,-9.848,"(0.0, 0.0, 0.0, 0.0, 0.0, 0.0, 0.0, 0.0, 0.0)",0,0,0,,0.0442,0.3746,0.6377,"(0.0, 0.0, 0.0, 0.0, 0.0, 0.0, 0.0, 0.0, 0.0)","$VNYMR,-082.480,+001.752,-000.516,+00.0442,+00.3746,+00.6377,+00.352,+00.088,-09.848,+00.001090,+00.000543,-00.000692*64"
1679334429.6530986,5186,1679334429,62573194,imu1_frame,0,0,0,,0.006700181690994055,0.014446067569866456,-0.659086019946486,0.7518989539879509,"(0.0, 0.0, 0.0, 0.0, 0.0, 0.0, 0.0, 0.0, 0.0)",0.000712,-0.000717,-0.001255,"(0.0, 0.0, 0.0, 0.0, 0.0, 0.0, 0.0, 0.0, 0.0)",0.225,0.045,-9.606,"(0.0, 0.0, 0.0, 0.0, 0.0, 0.0, 0.0, 0.0, 0.0)",0,0,0,,0.0261,0.3705,0.6359,"(0.0, 0.0, 0.0, 0.0, 0.0, 0.0, 0.0, 0.0, 0.0)","$VNYMR,-082.481,+001.751,-000.514,+00.0261,+00.3705,+00.6359,+00.225,+00.045,-09.606,+00.000712,-00.000717,-00.001255*6B"
1679334429.6581275,5187,1679334429,65172147,imu1_frame,0,0,0,,0.006706690929427198,0.01445227719524721,-0.6591252710205355,0.751864368807802,"(0.0, 0.0, 0.0, 0.0, 0.0, 0.0, 0.0, 0.0, 0.0)",-0.001757,0.002248,-0.000251,"(0.0, 0.0, 0.0, 0.0, 0.0, 0.0, 0.0, 0.0, 0.0)",0.284,0.087,-9.652,"(0.0, 0.0, 0.0, 0.0, 0.0, 0.0, 0.0, 0.0, 0.0)",0,0,0,,0.0262,0.3751,0.6308,"(0.0, 0.0, 0.0, 0.0, 0.0, 0.0, 0.0, 0.0, 0.0)","$VNYMR,-082.487,+001.752,-000.514,+00.0262,+00.3751,+00.6308,+00.284,+00.087,-09.652,-00.001757,+00.002248,-00.000251*64"
1679334429.7009485,5188,1679334429,67549490,imu1_frame,0,0,0,,0.006706312567396691,0.014452452771052423,-0.6591055870315129,0.7518816244093838,"(0.0, 0.0, 0.0, 0.0, 0.0, 0.0, 0.0, 0.0, 0.0)",-0.00059,0.0014,4.3e-05,"(0.0, 0.0, 0.0, 0.0, 0.0, 0.0, 0.0, 0.0, 0.0)",0.273,0.044,-9.817,"(0.0, 0.0, 0.0, 0.0, 0.0, 0.0, 0.0, 0.0, 0.0)",0,0,0,,0.0398,0.369,0.6363,"(0.0, 0.0, 0.0, 0.0, 0.0, 0.0, 0.0, 0.0, 0.0)","$VNYMR,-082.484,+001.752,-000.514,+00.0398,+00.3690,+00.6363,+00.273,+00.044,-09.817,-00.000590,+00.001400,+00.000043*6C"
1679334429.745046,5189,1679334429,70365166,imu1_frame,0,0,0,,0.0067191311623915895,0.014453027072484945,-0.6591318409908865,0.7518584836768347,"(0.0, 0.0, 0.0, 0.0, 0.0, 0.0, 0.0, 0.0, 0.0)",-0.000177,0.000338,-0.00103,"(0.0, 0.0, 0.0, 0.0, 0.0, 0.0, 0.0, 0.0, 0.0)",0.252,0.015,-9.644,"(0.0, 0.0, 0.0, 0.0, 0.0, 0.0, 0.0, 0.0, 0.0)",0,0,0,,0.0262,0.3716,0.6308,"(0.0, 0.0, 0.0, 0.0, 0.0, 0.0, 0.0, 0.0, 0.0)","$VNYMR,-082.488,+001.753,-000.513,+00.0262,+00.3716,+00.6308,+00.252,+00.015,-09.644,-00.000177,+00.000338,-00.001030*6C"
1679334429.745625,5190,1679334429,72649168,imu1_frame,0,0,0,,0.006732253567416754,0.014441523049454187,-0.6591320931434044,0.7518583662913585,"(0.0, 0.0, 0.0, 0.0, 0.0, 0.0, 0.0, 0.0, 0.0)",0.000812,6.3e-05,-0.000523,"(0.0, 0.0, 0.0, 0.0, 0.0, 0.0, 0.0, 0.0, 0.0)",0.261,0.058,-9.633,"(0.0, 0.0, 0.0, 0.0, 0.0, 0.0, 0.0, 0.0, 0.0)",0,0,0,,0.0399,0.3747,0.6388,"(0.0, 0.0, 0.0, 0.0, 0.0, 0.0, 0.0, 0.0, 0.0)","$VNYMR,-082.488,+001.753,-000.511,+00.0399,+00.3747,+00.6388,+00.261,+00.058,-09.633,+00.000812,+00.000063,-00.000523*69"
1679334429.788475,5191,1679334429,75167346,imu1_frame,0,0,0,,0.0067385628163995365,0.014435888648595612,-0.6591190966410041,0.7518698114256492,"(0.0, 0.0, 0.0, 0.0, 0.0, 0.0, 0.0, 0.0, 0.0)",0.000506,0.000974,-0.000753,"(0.0, 0.0, 0.0, 0.0, 0.0, 0.0, 0.0, 0.0, 0.0)",0.341,-0.007,-9.857,"(0.0, 0.0, 0.0, 0.0, 0.0, 0.0, 0.0, 0.0, 0.0)",0,0,0,,0.025,0.3682,0.6359,"(0.0, 0.0, 0.0, 0.0, 0.0, 0.0, 0.0, 0.0, 0.0)","$VNYMR,-082.486,+001.753,-000.510,+00.0250,+00.3682,+00.6359,+00.341,-00.007,-09.857,+00.000506,+00.000974,-00.000753*67"
1679334429.7885637,5192,1679334429,77641797,imu1_frame,0,0,0,,0.006739066719868804,0.014435653419584818,-0.6591453414469518,0.7518468033707905,"(0.0, 0.0, 0.0, 0.0, 0.0, 0.0, 0.0, 0.0, 0.0)",-0.001079,-0.00063,-0.000392,"(0.0, 0.0, 0.0, 0.0, 0.0, 0.0, 0.0, 0.0, 0.0)",0.253,-0.022,-9.635,"(0.0, 0.0, 0.0, 0.0, 0.0, 0.0, 0.0, 0.0, 0.0)",0,0,0,,0.0441,0.37,0.6365,"(0.0, 0.0, 0.0, 0.0, 0.0, 0.0, 0.0, 0.0, 0.0)","$VNYMR,-082.490,+001.753,-000.510,+00.0441,+00.3700,+00.6365,+00.253,-00.022,-09.635,-00.001079,-00.000630,-00.000392*67"
1679334429.832443,5193,1679334429,80158138,imu1_frame,0,0,0,,0.006738258640580054,0.014447965863399342,-0.6591450981567777,0.7518467874033876,"(0.0, 0.0, 0.0, 0.0, 0.0, 0.0, 0.0, 0.0, 0.0)",-0.001462,0.000955,-0.000895,"(0.0, 0.0, 0.0, 0.0, 0.0, 0.0, 0.0, 0.0, 0.0)",0.324,0.052,-9.745,"(0.0, 0.0, 0.0, 0.0, 0.0, 0.0, 0.0, 0.0, 0.0)",0,0,0,,0.0303,0.3681,0.6399,"(0.0, 0.0, 0.0, 0.0, 0.0, 0.0, 0.0, 0.0, 0.0)","$VNYMR,-082.490,+001.754,-000.511,+00.0303,+00.3681,+00.6399,+00.324,+00.052,-09.745,-00.001462,+00.000955,-00.000895*65"
1679334429.8325114,5194,1679334429,82638025,imu1_frame,0,0,0,,0.006732075934513329,0.014453541748572083,-0.6591646551279091,0.7518295895444917,"(0.0, 0.0, 0.0, 0.0, 0.0, 0.0, 0.0, 0.0, 0.0)",-0.001198,0.001206,-0.000617,"(0.0, 0.0, 0.0, 0.0, 0.0, 0.0, 0.0, 0.0, 0.0)",0.315,0.029,-9.792,"(0.0, 0.0, 0.0, 0.0, 0.0, 0.0, 0.0, 0.0, 0.0)",0,0,0,,0.024,0.3717,0.6346,"(0.0, 0.0, 0.0, 0.0, 0.0, 0.0, 0.0, 0.0, 0.0)","$VNYMR,-082.493,+001.754,-000.512,+00.0240,+00.3717,+00.6346,+00.315,+00.029,-09.792,-00.001198,+00.001206,-00.000617*63"
1679334429.876752,5195,1679334429,85181164,imu1_frame,0,0,0,,0.006718322868628694,0.014465339495820417,-0.6591315973786527,0.7518584676840246,"(0.0, 0.0, 0.0, 0.0, 0.0, 0.0, 0.0, 0.0, 0.0)",-0.001628,-0.000261,5.2e-05,"(0.0, 0.0, 0.0, 0.0, 0.0, 0.0, 0.0, 0.0, 0.0)",0.26,0.073,-9.699,"(0.0, 0.0, 0.0, 0.0, 0.0, 0.0, 0.0, 0.0, 0.0)",0,0,0,,0.0378,0.3736,0.635,"(0.0, 0.0, 0.0, 0.0, 0.0, 0.0, 0.0, 0.0, 0.0)","$VNYMR,-082.488,+001.754,-000.514,+00.0378,+00.3736,+00.6350,+00.260,+00.073,-09.699,-00.001628,-00.000261,+00.000052*6C"
1679334429.8805513,5196,1679334429,87714600,imu1_frame,0,0,0,,0.006717261891428052,0.01447776915544398,-0.6591182310456447,0.7518699555749143,"(0.0, 0.0, 0.0, 0.0, 0.0, 0.0, 0.0, 0.0, 0.0)",-0.001383,0.001855,-0.000843,"(0.0, 0.0, 0.0, 0.0, 0.0, 0.0, 0.0, 0.0, 0.0)",0.282,0.111,-9.742,"(0.0, 0.0, 0.0, 0.0, 0.0, 0.0, 0.0, 0.0, 0.0)",0,0,0,,0.0272,0.3705,0.6347,"(0.0, 0.0, 0.0, 0.0, 0.0, 0.0, 0.0, 0.0, 0.0)","$VNYMR,-082.486,+001.755,-000.515,+00.0272,+00.3705,+00.6347,+00.282,+00.111,-09.742,-00.001383,+00.001855,-00.000843*61"
1679334429.9250634,5197,1679334429,90156030,imu1_frame,0,0,0,,0.006710574195216262,0.014483579607897165,-0.6591115433494329,0.7518757660273675,"(0.0, 0.0, 0.0, 0.0, 0.0, 0.0, 0.0, 0.0, 0.0)",-0.000354,0.001257,0.000952,"(0.0, 0.0, 0.0, 0.0, 0.0, 0.0, 0.0, 0.0, 0.0)",0.3,0.058,-9.818,"(0.0, 0.0, 0.0, 0.0, 0.0, 0.0, 0.0, 0.0, 0.0)",0,0,0,,0.0419,0.3678,0.639,"(0.0, 0.0, 0.0, 0.0, 0.0, 0.0, 0.0, 0.0, 0.0)","$VNYMR,-082.485,+001.755,-000.516,+00.0419,+00.3678,+00.6390,+00.300,+00.058,-09.818,-00.000354,+00.001257,+00.000952*68"
1679334429.968771,5198,1679334429,92626094,imu1_frame,0,0,0,,0.006704392168631865,0.014489155925019119,-0.659131100768441,0.7518585688053394,"(0.0, 0.0, 0.0, 0.0, 0.0, 0.0, 0.0, 0.0, 0.0)",-0.001394,-0.003665,-0.000711,"(0.0, 0.0, 0.0, 0.0, 0.0, 0.0, 0.0, 0.0, 0.0)",0.234,0.085,-9.697,"(0.0, 0.0, 0.0, 0.0, 0.0, 0.0, 0.0, 0.0, 0.0)",0,0,0,,0.023,0.3728,0.6307,"(0.0, 0.0, 0.0, 0.0, 0.0, 0.0, 0.0, 0.0, 0.0)","$VNYMR,-082.488,+001.755,-000.517,+00.0230,+00.3728,+00.6307,+00.234,+00.085,-09.697,-00.001394,-00.003665,-00.000711*6F"
1679334429.9692624,5199,1679334429,95181012,imu1_frame,0,0,0,,0.006692710220048725,0.014488055509377974,-0.6591638974386644,0.7518299410045716,"(0.0, 0.0, 0.0, 0.0, 0.0, 0.0, 0.0, 0.0, 0.0)",-0.000318,-0.000236,-3.1e-05,"(0.0, 0.0, 0.0, 0.0, 0.0, 0.0, 0.0, 0.0, 0.0)",0.251,0.124,-9.727,"(0.0, 0.0, 0.0, 0.0, 0.0, 0.0, 0.0, 0.0, 0.0)",0,0,0,,0.043,0.3712,0.6364,"(0.0, 0.0, 0.0, 0.0, 0.0, 0.0, 0.0, 0.0, 0.0)","$VNYMR,-082.493,+001.754,-000.518,+00.0430,+00.3712,+00.6364,+00.251,+00.124,-09.727,-00.000318,-00.000236,-00.000031*63"
1679334430.0141015,5200,1679334429,97647809,imu1_frame,0,0,0,,0.006680951186515049,0.014475051798390537,-0.6591510107634476,0.7518415942046586,"(0.0, 0.0, 0.0, 0.0, 0.0, 0.0, 0.0, 0.0, 0.0)",0.0006,0.001012,-0.000526,"(0.0, 0.0, 0.0, 0.0, 0.0, 0.0, 0.0, 0.0, 0.0)",0.288,0.065,-9.735,"(0.0, 0.0, 0.0, 0.0, 0.0, 0.0, 0.0, 0.0, 0.0)",0,0,0,,0.0357,0.3725,0.6336,"(0.0, 0.0, 0.0, 0.0, 0.0, 0.0, 0.0, 0.0, 0.0)","$VNYMR,-082.491,+001.752,-000.518,+00.0357,+00.3725,+00.6336,+00.288,+00.065,-09.735,+00.000600,+00.001012,-00.000526*6B"
1679334430.014711,5201,1679334430,160503,imu1_frame,0,0,0,,0.006687891044983159,0.014469124536516994,-0.6591708199964972,0.751824279079668,"(0.0, 0.0, 0.0, 0.0, 0.0, 0.0, 0.0, 0.0, 0.0)",0.001058,-0.000986,-0.001046,"(0.0, 0.0, 0.0, 0.0, 0.0, 0.0, 0.0, 0.0, 0.0)",0.212,0.076,-9.632,"(0.0, 0.0, 0.0, 0.0, 0.0, 0.0, 0.0, 0.0, 0.0)",0,0,0,,0.0178,0.3741,0.6331,"(0.0, 0.0, 0.0, 0.0, 0.0, 0.0, 0.0, 0.0, 0.0)","$VNYMR,-082.494,+001.752,-000.517,+00.0178,+00.3741,+00.6331,+00.212,+00.076,-09.632,+00.001058,-00.000986,-00.001046*67"
1679334430.0570798,5202,1679334430,2659702,imu1_frame,0,0,0,,0.006694578165739488,0.01446331376473033,-0.6591775071172536,0.7518184683078813,"(0.0, 0.0, 0.0, 0.0, 0.0, 0.0, 0.0, 0.0, 0.0)",0.000741,0.000671,0.000712,"(0.0, 0.0, 0.0, 0.0, 0.0, 0.0, 0.0, 0.0, 0.0)",0.297,0.062,-9.698,"(0.0, 0.0, 0.0, 0.0, 0.0, 0.0, 0.0, 0.0, 0.0)",0,0,0,,0.0471,0.3654,0.6379,"(0.0, 0.0, 0.0, 0.0, 0.0, 0.0, 0.0, 0.0, 0.0)","$VNYMR,-082.495,+001.752,-000.516,+00.0471,+00.3654,+00.6379,+00.297,+00.062,-09.698,+00.000741,+00.000671,+00.000712*64"
1679334430.062517,5203,1679334430,5279564,imu1_frame,0,0,0,,0.006695385707377736,0.014451001292041977,-0.6591777507304643,0.7518184842858101,"(0.0, 0.0, 0.0, 0.0, 0.0, 0.0, 0.0, 0.0, 0.0)",0.001258,0.001444,-0.000401,"(0.0, 0.0, 0.0, 0.0, 0.0, 0.0, 0.0, 0.0, 0.0)",0.29,-0.027,-9.754,"(0.0, 0.0, 0.0, 0.0, 0.0, 0.0, 0.0, 0.0, 0.0)",0,0,0,,0.0273,0.375,0.6321,"(0.0, 0.0, 0.0, 0.0, 0.0, 0.0, 0.0, 0.0, 0.0)","$VNYMR,-082.495,+001.751,-000.515,+00.0273,+00.3750,+00.6321,+00.290,-00.027,-09.754,+00.001258,+00.001444,-00.000401*67"
1679334430.105072,5204,1679334430,7619023,imu1_frame,0,0,0,,0.006695890138404081,0.014450767570187402,-0.6592039937447209,0.7517954741835685,"(0.0, 0.0, 0.0, 0.0, 0.0, 0.0, 0.0, 0.0, 0.0)",-0.001409,0.000566,-0.001129,"(0.0, 0.0, 0.0, 0.0, 0.0, 0.0, 0.0, 0.0, 0.0)",0.268,0.01,-9.692,"(0.0, 0.0, 0.0, 0.0, 0.0, 0.0, 0.0, 0.0, 0.0)",0,0,0,,0.0367,0.3714,0.6312,"(0.0, 0.0, 0.0, 0.0, 0.0, 0.0, 0.0, 0.0, 0.0)","$VNYMR,-082.499,+001.751,-000.515,+00.0367,+00.3714,+00.6312,+00.268,+00.010,-09.692,-00.001409,+00.000566,-00.001129*6B"
1679334430.1495411,5205,1679334430,10243010,imu1_frame,0,0,0,,0.006682945438085997,0.014450251959509202,-0.6591711811455017,0.7518243693881055,"(0.0, 0.0, 0.0, 0.0, 0.0, 0.0, 0.0, 0.0, 0.0)",0.001452,-0.008176,0.001232,"(0.0, 0.0, 0.0, 0.0, 0.0, 0.0, 0.0, 0.0, 0.0)",0.539,-0.117,-9.916,"(0.0, 0.0, 0.0, 0.0, 0.0, 0.0, 0.0, 0.0, 0.0)",0,0,0,,0.0282,0.3716,0.6372,"(0.0, 0.0, 0.0, 0.0, 0.0, 0.0, 0.0, 0.0, 0.0)","$VNYMR,-082.494,+001.750,-000.516,+00.0282,+00.3716,+00.6372,+00.539,-00.117,-09.916,+00.001452,-00.008176,+00.001232*66"
1679334430.149635,5206,1679334430,12614274,imu1_frame,0,0,0,,0.006693896947794874,0.01447556781844538,-0.6591838241177352,0.7518126998804321,"(0.0, 0.0, 0.0, 0.0, 0.0, 0.0, 0.0, 0.0, 0.0)",-0.003826,0.009752,-0.001101,"(0.0, 0.0, 0.0, 0.0, 0.0, 0.0, 0.0, 0.0, 0.0)",0.277,0.017,-9.27,"(0.0, 0.0, 0.0, 0.0, 0.0, 0.0, 0.0, 0.0, 0.0)",0,0,0,,0.0219,0.3706,0.6282,"(0.0, 0.0, 0.0, 0.0, 0.0, 0.0, 0.0, 0.0, 0.0)","$VNYMR,-082.496,+001.753,-000.517,+00.0219,+00.3706,+00.6282,+00.277,+00.017,-09.270,-00.003826,+00.009752,-00.001101*63"
1679334430.1978996,5207,1679334430,15377783,imu1_frame,0,0,0,,0.006682390207350922,0.014462447797641697,-0.659184059242396,0.7518128485903487,"(0.0, 0.0, 0.0, 0.0, 0.0, 0.0, 0.0, 0.0, 0.0)",0.000951,-0.003218,-0.001636,"(0.0, 0.0, 0.0, 0.0, 0.0, 0.0, 0.0, 0.0, 0.0)",0.323,0.165,-9.962,"(0.0, 0.0, 0.0, 0.0, 0.0, 0.0, 0.0, 0.0, 0.0)",0,0,0,,0.0408,0.3678,0.6313,"(0.0, 0.0, 0.0, 0.0, 0.0, 0.0, 0.0, 0.0, 0.0)","$VNYMR,-082.496,+001.751,-000.517,+00.0408,+00.3678,+00.6313,+00.323,+00.165,-09.962,+00.000951,-00.003218,-00.001636*6A"
1679334430.1986442,5208,1679334430,18164730,imu1_frame,0,0,0,,0.006663339580696226,0.014479414461745502,-0.6592164837945313,0.7517842602476136,"(0.0, 0.0, 0.0, 0.0, 0.0, 0.0, 0.0, 0.0, 0.0)",-0.003475,-0.00251,0.000336,"(0.0, 0.0, 0.0, 0.0, 0.0, 0.0, 0.0, 0.0, 0.0)",0.311,0.037,-9.589,"(0.0, 0.0, 0.0, 0.0, 0.0, 0.0, 0.0, 0.0, 0.0)",0,0,0,,0.0188,0.373,0.6268,"(0.0, 0.0, 0.0, 0.0, 0.0, 0.0, 0.0, 0.0, 0.0)","$VNYMR,-082.501,+001.751,-000.520,+00.0188,+00.3730,+00.6268,+00.311,+00.037,-09.589,-00.003475,-00.002510,+00.000336*60"
1679334430.241341,5209,1679334430,20275783,imu1_frame,0,0,0,,0.006656478182472348,0.014497247366349221,-0.6592423549750331,0.751761290918851,"(0.0, 0.0, 0.0, 0.0, 0.0, 0.0, 0.0, 0.0, 0.0)",-0.0011,0.00263,0.000219,"(0.0, 0.0, 0.0, 0.0, 0.0, 0.0, 0.0, 0.0, 0.0)",0.282,0.071,-9.816,"(0.0, 0.0, 0.0, 0.0, 0.0, 0.0, 0.0, 0.0, 0.0)",0,0,0,,0.0409,0.3701,0.6326,"(0.0, 0.0, 0.0, 0.0, 0.0, 0.0, 0.0, 0.0, 0.0)","$VNYMR,-082.505,+001.752,-000.522,+00.0409,+00.3701,+00.6326,+00.282,+00.071,-09.816,-00.001100,+00.002630,+00.000219*6C"
1679334430.2855415,5210,1679334430,23510074,imu1_frame,0,0,0,,0.006644290442854675,0.014496382805907876,-0.6592489066550151,0.7517556699914026,"(0.0, 0.0, 0.0, 0.0, 0.0, 0.0, 0.0, 0.0, 0.0)",-0.002048,-0.001199,-0.000821,"(0.0, 0.0, 0.0, 0.0, 0.0, 0.0, 0.0, 0.0, 0.0)",0.227,0.108,-9.533,"(0.0, 0.0, 0.0, 0.0, 0.0, 0.0, 0.0, 0.0, 0.0)",0,0,0,,0.0168,0.3776,0.6254,"(0.0, 0.0, 0.0, 0.0, 0.0, 0.0, 0.0, 0.0, 0.0)","$VNYMR,-082.506,+001.751,-000.523,+00.0168,+00.3776,+00.6254,+00.227,+00.108,-09.533,-00.002048,-00.001199,-00.000821*69"
1679334430.2869918,5211,1679334430,25683236,imu1_frame,0,0,0,,0.00663768374397069,0.014514100839927754,-0.6592878964766699,0.7517211927241982,"(0.0, 0.0, 0.0, 0.0, 0.0, 0.0, 0.0, 0.0, 0.0)",-0.002967,0.001674,-0.001118,"(0.0, 0.0, 0.0, 0.0, 0.0, 0.0, 0.0, 0.0, 0.0)",0.298,0.127,-9.838,"(0.0, 0.0, 0.0, 0.0, 0.0, 0.0, 0.0, 0.0, 0.0)",0,0,0,,0.0346,0.3714,0.6298,"(0.0, 0.0, 0.0, 0.0, 0.0, 0.0, 0.0, 0.0, 0.0)","$VNYMR,-082.512,+001.752,-000.525,+00.0346,+00.3714,+00.6298,+00.298,+00.127,-09.838,-00.002967,+00.001674,-00.001118*68"
1679334430.287114,5212,1679334430,27616143,imu1_frame,0,0,0,,0.006637050440533227,0.01451439044970136,-0.6592550958244097,0.7517499588698838,"(0.0, 0.0, 0.0, 0.0, 0.0, 0.0, 0.0, 0.0, 0.0)",0.001451,0.000499,-0.000205,"(0.0, 0.0, 0.0, 0.0, 0.0, 0.0, 0.0, 0.0, 0.0)",0.283,0.061,-9.719,"(0.0, 0.0, 0.0, 0.0, 0.0, 0.0, 0.0, 0.0, 0.0)",0,0,0,,0.044,0.3678,0.6301,"(0.0, 0.0, 0.0, 0.0, 0.0, 0.0, 0.0, 0.0, 0.0)","$VNYMR,-082.507,+001.752,-000.525,+00.0440,+00.3678,+00.6301,+00.283,+00.061,-09.719,+00.001451,+00.000499,-00.000205*61"
1679334430.3292813,5213,1679334430,32028794,imu1_frame,0,0,0,,0.006643438035009868,0.014520660038166863,-0.6592877784209361,0.7517211187587571,"(0.0, 0.0, 0.0, 0.0, 0.0, 0.0, 0.0, 0.0, 0.0)",-0.001161,0.000757,-0.000388,"(0.0, 0.0, 0.0, 0.0, 0.0, 0.0, 0.0, 0.0, 0.0)",0.244,0.039,-9.631,"(0.0, 0.0, 0.0, 0.0, 0.0, 0.0, 0.0, 0.0, 0.0)",0,0,0,,0.0231,0.3751,0.6269,"(0.0, 0.0, 0.0, 0.0, 0.0, 0.0, 0.0, 0.0, 0.0)","$VNYMR,-082.512,+001.753,-000.525,+00.0231,+00.3751,+00.6269,+00.244,+00.039,-09.631,-00.001161,+00.000757,-00.000388*69"
1679334430.3372047,5214,1679334430,33110547,imu1_frame,0,0,0,,0.0066427591455045275,0.014532914636486186,-0.6592940934950334,0.7517153493348833,"(0.0, 0.0, 0.0, 0.0, 0.0, 0.0, 0.0, 0.0, 0.0)",-9.6e-05,0.002026,-0.000448,"(0.0, 0.0, 0.0, 0.0, 0.0, 0.0, 0.0, 0.0, 0.0)",0.271,0.115,-9.759,"(0.0, 0.0, 0.0, 0.0, 0.0, 0.0, 0.0, 0.0, 0.0)",0,0,0,,0.0355,0.3657,0.6299,"(0.0, 0.0, 0.0, 0.0, 0.0, 0.0, 0.0, 0.0, 0.0)","$VNYMR,-082.513,+001.754,-000.526,+00.0355,+00.3657,+00.6299,+00.271,+00.115,-09.759,-00.000096,+00.002026,-00.000448*61"
1679334430.3855665,5215,1679334430,35200834,imu1_frame,0,0,0,,0.006661886958837439,0.01452785065879568,-0.6593073487464187,0.7517036521837255,"(0.0, 0.0, 0.0, 0.0, 0.0, 0.0, 0.0, 0.0, 0.0)",0.001415,0.001571,0.000447,"(0.0, 0.0, 0.0, 0.0, 0.0, 0.0, 0.0, 0.0, 0.0)",0.386,0.027,-9.753,"(0.0, 0.0, 0.0, 0.0, 0.0, 0.0, 0.0, 0.0, 0.0)",0,0,0,,0.0251,0.3728,0.627,"(0.0, 0.0, 0.0, 0.0, 0.0, 0.0, 0.0, 0.0, 0.0)","$VNYMR,-082.515,+001.755,-000.524,+00.0251,+00.3728,+00.6270,+00.386,+00.027,-09.753,+00.001415,+00.001571,+00.000447*69"
1679334430.424444,5216,1679334430,37630295,imu1_frame,0,0,0,,0.006674835196252543,0.014528364931768633,-0.6593401560328308,0.7516747513586677,"(0.0, 0.0, 0.0, 0.0, 0.0, 0.0, 0.0, 0.0, 0.0)",0.000714,0.00021,-0.00019,"(0.0, 0.0, 0.0, 0.0, 0.0, 0.0, 0.0, 0.0, 0.0)",0.211,0.046,-9.656,"(0.0, 0.0, 0.0, 0.0, 0.0, 0.0, 0.0, 0.0, 0.0)",0,0,0,,0.0377,0.3691,0.6249,"(0.0, 0.0, 0.0, 0.0, 0.0, 0.0, 0.0, 0.0, 0.0)","$VNYMR,-082.520,+001.756,-000.523,+00.0377,+00.3691,+00.6249,+00.211,+00.046,-09.656,+00.000714,+00.000210,-00.000190*60"
1679334430.4245996,5217,1679334430,40350627,imu1_frame,0,0,0,,0.006669207176534234,0.014521747937268539,-0.6593468337050897,0.7516690717300771,"(0.0, 0.0, 0.0, 0.0, 0.0, 0.0, 0.0, 0.0, 0.0)",0.002509,0.000605,9.3e-05,"(0.0, 0.0, 0.0, 0.0, 0.0, 0.0, 0.0, 0.0, 0.0)",0.32,0.085,-9.761,"(0.0, 0.0, 0.0, 0.0, 0.0, 0.0, 0.0, 0.0, 0.0)",0,0,0,,0.022,0.3729,0.6282,"(0.0, 0.0, 0.0, 0.0, 0.0, 0.0, 0.0, 0.0, 0.0)","$VNYMR,-082.521,+001.755,-000.523,+00.0220,+00.3729,+00.6282,+00.320,+00.085,-09.761,+00.002509,+00.000605,+00.000093*65"
1679334430.4769871,5218,1679334430,42672014,imu1_frame,0,0,0,,0.006682959398008783,0.01450994857659594,-0.6593798841747015,0.7516401850564846,"(0.0, 0.0, 0.0, 0.0, 0.0, 0.0, 0.0, 0.0, 0.0)",0.00109,0.000561,-0.000576,"(0.0, 0.0, 0.0, 0.0, 0.0, 0.0, 0.0, 0.0, 0.0)",0.296,-0.015,-9.749,"(0.0, 0.0, 0.0, 0.0, 0.0, 0.0, 0.0, 0.0, 0.0)",0,0,0,,0.023,0.3717,0.627,"(0.0, 0.0, 0.0, 0.0, 0.0, 0.0, 0.0, 0.0, 0.0)","$VNYMR,-082.526,+001.755,-000.521,+00.0230,+00.3717,+00.6270,+00.296,-00.015,-09.749,+00.001090,+00.000561,-00.000576*67"
1679334430.477004,5219,1679334430,45412039,imu1_frame,0,0,0,,0.0066893921225354615,0.014504252777554408,-0.6593734514501748,0.751645880855526,"(0.0, 0.0, 0.0, 0.0, 0.0, 0.0, 0.0, 0.0, 0.0)",-0.000765,-0.000857,-0.001134,"(0.0, 0.0, 0.0, 0.0, 0.0, 0.0, 0.0, 0.0, 0.0)",0.241,0.023,-9.619,"(0.0, 0.0, 0.0, 0.0, 0.0, 0.0, 0.0, 0.0, 0.0)",0,0,0,,0.0378,0.3713,0.6223,"(0.0, 0.0, 0.0, 0.0, 0.0, 0.0, 0.0, 0.0, 0.0)","$VNYMR,-082.525,+001.755,-000.520,+00.0378,+00.3713,+00.6223,+00.241,+00.023,-09.619,-00.000765,-00.000857,-00.001134*60"
1679334430.513086,5220,1679334430,48293304,imu1_frame,0,0,0,,0.006696160182318353,0.014510343879972302,-0.6594258066912111,0.7515997717062872,"(0.0, 0.0, 0.0, 0.0, 0.0, 0.0, 0.0, 0.0, 0.0)",6.8e-05,-3.4e-05,-0.001912,"(0.0, 0.0, 0.0, 0.0, 0.0, 0.0, 0.0, 0.0, 0.0)",0.304,0.055,-9.828,"(0.0, 0.0, 0.0, 0.0, 0.0, 0.0, 0.0, 0.0, 0.0)",0,0,0,,0.0252,0.3728,0.6194,"(0.0, 0.0, 0.0, 0.0, 0.0, 0.0, 0.0, 0.0, 0.0)","$VNYMR,-082.533,+001.756,-000.520,+00.0252,+00.3728,+00.6194,+00.304,+00.055,-09.828,+00.000068,-00.000034,-00.001912*6A"
1679334430.5232322,5221,1679334430,51171207,imu1_frame,0,0,0,,0.006702422401419619,0.014516668074467337,-0.6594519240842036,0.7515766785256246,"(0.0, 0.0, 0.0, 0.0, 0.0, 0.0, 0.0, 0.0, 0.0)",-0.000108,0.000566,-0.000269,"(0.0, 0.0, 0.0, 0.0, 0.0, 0.0, 0.0, 0.0, 0.0)",0.355,-0.034,-9.801,"(0.0, 0.0, 0.0, 0.0, 0.0, 0.0, 0.0, 0.0, 0.0)",0,0,0,,0.0378,0.3725,0.6286,"(0.0, 0.0, 0.0, 0.0, 0.0, 0.0, 0.0, 0.0, 0.0)","$VNYMR,-082.537,+001.757,-000.520,+00.0378,+00.3725,+00.6286,+00.355,-00.034,-09.801,-00.000108,+00.000566,-00.000269*66"
1679334430.5649865,5222,1679334430,53212690,imu1_frame,0,0,0,,0.006697046556291288,0.014509934807750943,-0.6594717180781953,0.7515594882737434,"(0.0, 0.0, 0.0, 0.0, 0.0, 0.0, 0.0, 0.0, 0.0)",-0.000971,1.7e-05,-0.000884,"(0.0, 0.0, 0.0, 0.0, 0.0, 0.0, 0.0, 0.0, 0.0)",0.202,0.051,-9.591,"(0.0, 0.0, 0.0, 0.0, 0.0, 0.0, 0.0, 0.0, 0.0)",0,0,0,,0.0221,0.3774,0.623,"(0.0, 0.0, 0.0, 0.0, 0.0, 0.0, 0.0, 0.0, 0.0)","$VNYMR,-082.540,+001.756,-000.520,+00.0221,+00.3774,+00.6230,+00.202,+00.051,-09.591,-00.000971,+00.000017,-00.000884*6D"
1679334430.6093006,5223,1679334430,55557274,imu1_frame,0,0,0,,0.006703140808686319,0.014528278947263138,-0.6595303805912783,0.7515076008206791,"(0.0, 0.0, 0.0, 0.0, 0.0, 0.0, 0.0, 0.0, 0.0)",-0.000147,0.000891,0.000545,"(0.0, 0.0, 0.0, 0.0, 0.0, 0.0, 0.0, 0.0, 0.0)",0.336,0.091,-9.845,"(0.0, 0.0, 0.0, 0.0, 0.0, 0.0, 0.0, 0.0, 0.0)",0,0,0,,0.0348,0.3783,0.6323,"(0.0, 0.0, 0.0, 0.0, 0.0, 0.0, 0.0, 0.0, 0.0)","$VNYMR,-082.549,+001.758,-000.521,+00.0348,+00.3783,+00.6323,+00.336,+00.091,-09.845,-00.000147,+00.000891,+00.000545*6D"
1679334430.6095715,5224,1679334430,57623982,imu1_frame,0,0,0,,0.006696582667437124,0.014534034435038992,-0.6595302537830141,0.7515076592880026,"(0.0, 0.0, 0.0, 0.0, 0.0, 0.0, 0.0, 0.0, 0.0)",-0.001041,0.001499,-0.001542,"(0.0, 0.0, 0.0, 0.0, 0.0, 0.0, 0.0, 0.0, 0.0)",0.324,0.043,-9.735,"(0.0, 0.0, 0.0, 0.0, 0.0, 0.0, 0.0, 0.0, 0.0)",0,0,0,,0.0325,0.3715,0.631,"(0.0, 0.0, 0.0, 0.0, 0.0, 0.0, 0.0, 0.0, 0.0)","$VNYMR,-082.549,+001.758,-000.522,+00.0325,+00.3715,+00.6310,+00.324,+00.043,-09.735,-00.001041,+00.001499,-00.001542*6D"
1679334430.6522238,5225,1679334430,60156559,imu1_frame,0,0,0,,0.006696288689176556,0.014546113521340958,-0.6595562408216502,0.7514846209287511,"(0.0, 0.0, 0.0, 0.0, 0.0, 0.0, 0.0, 0.0, 0.0)",-0.00135,0.000744,-0.000835,"(0.0, 0.0, 0.0, 0.0, 0.0, 0.0, 0.0, 0.0, 0.0)",0.24,0.093,-9.538,"(0.0, 0.0, 0.0, 0.0, 0.0, 0.0, 0.0, 0.0, 0.0)",0,0,0,,0.0241,0.3728,0.6244,"(0.0, 0.0, 0.0, 0.0, 0.0, 0.0, 0.0, 0.0, 0.0)","$VNYMR,-082.553,+001.759,-000.523,+00.0241,+00.3728,+00.6244,+00.240,+00.093,-09.538,-00.001350,+00.000744,-00.000835*67"
1679334430.6522954,5226,1679334430,62595582,imu1_frame,0,0,0,,0.006696503735344186,0.01455795889837278,-0.6596084573963819,0.7514385574360697,"(0.0, 0.0, 0.0, 0.0, 0.0, 0.0, 0.0, 0.0, 0.0)",0.000108,6.7e-05,0.000829,"(0.0, 0.0, 0.0, 0.0, 0.0, 0.0, 0.0, 0.0, 0.0)",0.3,0.118,-9.796,"(0.0, 0.0, 0.0, 0.0, 0.0, 0.0, 0.0, 0.0, 0.0)",0,0,0,,0.0356,0.3691,0.6286,"(0.0, 0.0, 0.0, 0.0, 0.0, 0.0, 0.0, 0.0, 0.0)","$VNYMR,-082.561,+001.760,-000.524,+00.0356,+00.3691,+00.6286,+00.300,+00.118,-09.796,+00.000108,+00.000067,+00.000829*65"
1679334430.6960356,5227,1679334430,65214967,imu1_frame,0,0,0,,0.006690200380372735,0.014563598303690079,-0.6596214453066165,0.7514271033938885,"(0.0, 0.0, 0.0, 0.0, 0.0, 0.0, 0.0, 0.0, 0.0)",0.000127,0.000287,-0.000332,"(0.0, 0.0, 0.0, 0.0, 0.0, 0.0, 0.0, 0.0, 0.0)",0.347,0.042,-9.769,"(0.0, 0.0, 0.0, 0.0, 0.0, 0.0, 0.0, 0.0, 0.0)",0,0,0,,0.0253,0.3774,0.6231,"(0.0, 0.0, 0.0, 0.0, 0.0, 0.0, 0.0, 0.0, 0.0)","$VNYMR,-082.563,+001.760,-000.525,+00.0253,+00.3774,+00.6231,+00.347,+00.042,-09.769,+00.000127,+00.000287,-00.000332*6F"
1679334430.6962082,5228,1679334430,67575383,imu1_frame,0,0,0,,0.006678394068280174,0.014562564847288371,-0.6596476660444646,0.7514042104219457,"(0.0, 0.0, 0.0, 0.0, 0.0, 0.0, 0.0, 0.0, 0.0)",-0.000955,-0.000234,-0.000887,"(0.0, 0.0, 0.0, 0.0, 0.0, 0.0, 0.0, 0.0, 0.0)",0.212,0.081,-9.552,"(0.0, 0.0, 0.0, 0.0, 0.0, 0.0, 0.0, 0.0, 0.0)",0,0,0,,0.0357,0.3748,0.6273,"(0.0, 0.0, 0.0, 0.0, 0.0, 0.0, 0.0, 0.0, 0.0)","$VNYMR,-082.567,+001.759,-000.526,+00.0357,+00.3748,+00.6273,+00.212,+00.081,-09.552,-00.000955,-00.000234,-00.000887*6A"
1679334430.7431676,5229,1679334430,70150494,imu1_frame,0,0,0,,0.006671709696442218,0.014568379580776775,-0.6596409816726266,0.7514100251554341,"(0.0, 0.0, 0.0, 0.0, 0.0, 0.0, 0.0, 0.0, 0.0)",-0.000551,0.000575,-0.000128,"(0.0, 0.0, 0.0, 0.0, 0.0, 0.0, 0.0, 0.0, 0.0)",0.278,0.095,-9.799,"(0.0, 0.0, 0.0, 0.0, 0.0, 0.0, 0.0, 0.0, 0.0)",0,0,0,,0.024,0.3717,0.6308,"(0.0, 0.0, 0.0, 0.0, 0.0, 0.0, 0.0, 0.0, 0.0)","$VNYMR,-082.566,+001.759,-000.527,+00.0240,+00.3717,+00.6308,+00.278,+00.095,-09.799,-00.000551,+00.000575,-00.000128*66"
1679334430.7454288,5230,1679334430,72565960,imu1_frame,0,0,0,,0.006666841835559014,0.014561415876595967,-0.6596869999791972,0.7513698027243676,"(0.0, 0.0, 0.0, 0.0, 0.0, 0.0, 0.0, 0.0, 0.0)",0.001275,-0.000511,-0.000937,"(0.0, 0.0, 0.0, 0.0, 0.0, 0.0, 0.0, 0.0, 0.0)",0.364,0.002,-9.822,"(0.0, 0.0, 0.0, 0.0, 0.0, 0.0, 0.0, 0.0, 0.0)",0,0,0,,0.0158,0.3787,0.6216,"(0.0, 0.0, 0.0, 0.0, 0.0, 0.0, 0.0, 0.0, 0.0)","$VNYMR,-082.573,+001.758,-000.527,+00.0158,+00.3787,+00.6216,+00.364,+00.002,-09.822,+00.001275,-00.000511,-00.000937*67"
1679334430.7849224,5231,1679334430,75714373,imu1_frame,0,0,0,,0.00667970176678452,0.01455001874920145,-0.6596741400479716,0.7513811998517621,"(0.0, 0.0, 0.0, 0.0, 0.0, 0.0, 0.0, 0.0, 0.0)",-0.000429,0.001159,0.000143,"(0.0, 0.0, 0.0, 0.0, 0.0, 0.0, 0.0, 0.0, 0.0)",0.204,0.03,-9.57,"(0.0, 0.0, 0.0, 0.0, 0.0, 0.0, 0.0, 0.0, 0.0)",0,0,0,,0.0377,0.3691,0.6274,"(0.0, 0.0, 0.0, 0.0, 0.0, 0.0, 0.0, 0.0, 0.0)","$VNYMR,-082.571,+001.758,-000.525,+00.0377,+00.3691,+00.6274,+00.204,+00.030,-09.570,-00.000429,+00.001159,+00.000143*6C"
1679334430.787093,5232,1679334430,78265285,imu1_frame,0,0,0,,0.006680209654181711,0.014549785574759356,-0.6597003677978199,0.7513581724225309,"(0.0, 0.0, 0.0, 0.0, 0.0, 0.0, 0.0, 0.0, 0.0)",0.001152,-0.000922,-0.001116,"(0.0, 0.0, 0.0, 0.0, 0.0, 0.0, 0.0, 0.0, 0.0)",0.316,0.069,-9.891,"(0.0, 0.0, 0.0, 0.0, 0.0, 0.0, 0.0, 0.0, 0.0)",0,0,0,,0.0314,0.3692,0.631,"(0.0, 0.0, 0.0, 0.0, 0.0, 0.0, 0.0, 0.0, 0.0)","$VNYMR,-082.575,+001.758,-000.525,+00.0314,+00.3692,+00.6310,+00.316,+00.069,-09.891,+00.001152,-00.000922,-00.001116*6B"
1679334430.8284204,5233,1679334430,80860090,imu1_frame,0,0,0,,0.0066940845400811485,0.014537921147530726,-0.6597399617504851,0.7513235128427346,"(0.0, 0.0, 0.0, 0.0, 0.0, 0.0, 0.0, 0.0, 0.0)",4.6e-05,-0.000508,-0.000401,"(0.0, 0.0, 0.0, 0.0, 0.0, 0.0, 0.0, 0.0, 0.0)",0.342,-0.016,-9.826,"(0.0, 0.0, 0.0, 0.0, 0.0, 0.0, 0.0, 0.0, 0.0)",0,0,0,,0.0368,0.3748,0.626,"(0.0, 0.0, 0.0, 0.0, 0.0, 0.0, 0.0, 0.0, 0.0)","$VNYMR,-082.581,+001.758,-000.523,+00.0368,+00.3748,+00.6260,+00.342,-00.016,-09.826,+00.000046,-00.000508,-00.000401*6D"
1679334430.872751,5234,1679334430,82876729,imu1_frame,0,0,0,,0.006700767891147543,0.014532105355029759,-0.6597466451015516,0.7513176970502338,"(0.0, 0.0, 0.0, 0.0, 0.0, 0.0, 0.0, 0.0, 0.0)",-0.001344,0.000255,0.000439,"(0.0, 0.0, 0.0, 0.0, 0.0, 0.0, 0.0, 0.0, 0.0)",0.24,-0.011,-9.558,"(0.0, 0.0, 0.0, 0.0, 0.0, 0.0, 0.0, 0.0, 0.0)",0,0,0,,0.0157,0.3765,0.6229,"(0.0, 0.0, 0.0, 0.0, 0.0, 0.0, 0.0, 0.0, 0.0)","$VNYMR,-082.582,+001.758,-000.522,+00.0157,+00.3765,+00.6229,+00.240,-00.011,-09.558,-00.001344,+00.000255,+00.000439*61"
1679334430.8728702,5235,1679334430,85457158,imu1_frame,0,0,0,,0.006695353187542453,0.014537336923097012,-0.659805524583532,0.7512659368092821,"(0.0, 0.0, 0.0, 0.0, 0.0, 0.0, 0.0, 0.0, 0.0)",-8.3e-05,-0.000113,-0.00127,"(0.0, 0.0, 0.0, 0.0, 0.0, 0.0, 0.0, 0.0, 0.0)",0.28,0.11,-9.793,"(0.0, 0.0, 0.0, 0.0, 0.0, 0.0, 0.0, 0.0, 0.0)",0,0,0,,0.0388,0.3702,0.63,"(0.0, 0.0, 0.0, 0.0, 0.0, 0.0, 0.0, 0.0, 0.0)","$VNYMR,-082.591,+001.758,-000.523,+00.0388,+00.3702,+00.6300,+00.280,+00.110,-09.793,-00.000083,-00.000113,-00.001270*64"
1679334430.9168918,5236,1679334430,87855625,imu1_frame,0,0,0,,0.006682911491286125,0.01453659790677121,-0.6597989599385814,0.7512718272897385,"(0.0, 0.0, 0.0, 0.0, 0.0, 0.0, 0.0, 0.0, 0.0)",-0.000686,-2.6e-05,0.00038,"(0.0, 0.0, 0.0, 0.0, 0.0, 0.0, 0.0, 0.0, 0.0)",0.383,-0.005,-9.751,"(0.0, 0.0, 0.0, 0.0, 0.0, 0.0, 0.0, 0.0, 0.0)",0,0,0,,0.0282,0.3693,0.6284,"(0.0, 0.0, 0.0, 0.0, 0.0, 0.0, 0.0, 0.0, 0.0)","$VNYMR,-082.590,+001.757,-000.524,+00.0282,+00.3693,+00.6284,+00.383,-00.005,-09.751,-00.000686,-00.000026,+00.000380*60"
1679334430.9171264,5237,1679334430,90693783,imu1_frame,0,0,0,,0.006676989931165854,0.014542064413540766,-0.6598316128495705,0.751243095710294,"(0.0, 0.0, 0.0, 0.0, 0.0, 0.0, 0.0, 0.0, 0.0)",-0.000999,0.002444,-0.001451,"(0.0, 0.0, 0.0, 0.0, 0.0, 0.0, 0.0, 0.0, 0.0)",0.214,0.046,-9.559,"(0.0, 0.0, 0.0, 0.0, 0.0, 0.0, 0.0, 0.0, 0.0)",0,0,0,,0.0125,0.3754,0.6241,"(0.0, 0.0, 0.0, 0.0, 0.0, 0.0, 0.0, 0.0, 0.0)","$VNYMR,-082.595,+001.757,-000.525,+00.0125,+00.3754,+00.6241,+00.214,+00.046,-09.559,-00.000999,+00.002444,-00.001451*64"
1679334430.965787,5238,1679334430,92917013,imu1_frame,0,0,0,,0.006676701176252381,0.014554144500146571,-0.6598575904317228,0.7512200469162897,"(0.0, 0.0, 0.0, 0.0, 0.0, 0.0, 0.0, 0.0, 0.0)",0.000965,-0.000544,-0.000104,"(0.0, 0.0, 0.0, 0.0, 0.0, 0.0, 0.0, 0.0, 0.0)",0.344,0.123,-9.849,"(0.0, 0.0, 0.0, 0.0, 0.0, 0.0, 0.0, 0.0, 0.0)",0,0,0,,0.0408,0.3667,0.6275,"(0.0, 0.0, 0.0, 0.0, 0.0, 0.0, 0.0, 0.0, 0.0)","$VNYMR,-082.599,+001.758,-000.526,+00.0408,+00.3667,+00.6275,+00.344,+00.123,-09.849,+00.000965,-00.000544,-00.000104*66"
1679334430.9661193,5239,1679334430,95433163,imu1_frame,0,0,0,,0.006670399661612848,0.014559786425147044,-0.6598705745614659,0.751208588353148,"(0.0, 0.0, 0.0, 0.0, 0.0, 0.0, 0.0, 0.0, 0.0)",-0.001505,0.001726,-0.000165,"(0.0, 0.0, 0.0, 0.0, 0.0, 0.0, 0.0, 0.0, 0.0)",0.312,0.044,-9.761,"(0.0, 0.0, 0.0, 0.0, 0.0, 0.0, 0.0, 0.0, 0.0)",0,0,0,,0.0199,0.3741,0.6218,"(0.0, 0.0, 0.0, 0.0, 0.0, 0.0, 0.0, 0.0, 0.0)","$VNYMR,-082.601,+001.758,-000.527,+00.0199,+00.3741,+00.6218,+00.312,+00.044,-09.761,-00.001505,+00.001726,-00.000165*6B"
1679334431.0124402,5240,1679334430,97656011,imu1_frame,0,0,0,,0.006664860980362849,0.01456507962209555,-0.6599228901271331,0.7511625770563692,"(0.0, 0.0, 0.0, 0.0, 0.0, 0.0, 0.0, 0.0, 0.0)",-0.002085,0.000951,0.000318,"(0.0, 0.0, 0.0, 0.0, 0.0, 0.0, 0.0, 0.0, 0.0)",0.256,0.086,-9.554,"(0.0, 0.0, 0.0, 0.0, 0.0, 0.0, 0.0, 0.0, 0.0)",0,0,0,,0.0409,0.3678,0.6212,"(0.0, 0.0, 0.0, 0.0, 0.0, 0.0, 0.0, 0.0, 0.0)","$VNYMR,-082.609,+001.758,-000.528,+00.0409,+00.3678,+00.6212,+00.256,+00.086,-09.554,-00.002085,+00.000951,+00.000318*65"
1679334431.0135577,5241,1679334431,179672,imu1_frame,0,0,0,,0.006657001508500583,0.014583384142349921,-0.6598962961883098,0.7511856544921656,"(0.0, 0.0, 0.0, 0.0, 0.0, 0.0, 0.0, 0.0, 0.0)",0.000759,-0.000481,0.000377,"(0.0, 0.0, 0.0, 0.0, 0.0, 0.0, 0.0, 0.0, 0.0)",0.284,0.142,-9.842,"(0.0, 0.0, 0.0, 0.0, 0.0, 0.0, 0.0, 0.0, 0.0)",0,0,0,,0.021,0.3752,0.6192,"(0.0, 0.0, 0.0, 0.0, 0.0, 0.0, 0.0, 0.0, 0.0)","$VNYMR,-082.605,+001.759,-000.530,+00.0210,+00.3752,+00.6192,+00.284,+00.142,-09.842,+00.000759,-00.000481,+00.000377*6C"
1679334431.0572333,5242,1679334431,2644371,imu1_frame,0,0,0,,0.00666432011327894,0.014577276537246824,-0.6599357545084784,0.7511510432446391,"(0.0, 0.0, 0.0, 0.0, 0.0, 0.0, 0.0, 0.0, 0.0)",0.001406,0.001559,0.000539,"(0.0, 0.0, 0.0, 0.0, 0.0, 0.0, 0.0, 0.0, 0.0)",0.377,0.022,-9.758,"(0.0, 0.0, 0.0, 0.0, 0.0, 0.0, 0.0, 0.0, 0.0)",0,0,0,,0.0064,0.3824,0.6175,"(0.0, 0.0, 0.0, 0.0, 0.0, 0.0, 0.0, 0.0, 0.0)","$VNYMR,-082.611,+001.759,-000.529,+00.0064,+00.3824,+00.6175,+00.377,+00.022,-09.758,+00.001406,+00.001559,+00.000539*6E"
1679334431.0578136,5243,1679334431,5169582,imu1_frame,0,0,0,,0.006678065715899963,0.01456546711153873,-0.6599687833433437,0.7511221309603542,"(0.0, 0.0, 0.0, 0.0, 0.0, 0.0, 0.0, 0.0, 0.0)",-0.000871,0.001385,-0.001183,"(0.0, 0.0, 0.0, 0.0, 0.0, 0.0, 0.0, 0.0, 0.0)",0.203,0.068,-9.609,"(0.0, 0.0, 0.0, 0.0, 0.0, 0.0, 0.0, 0.0, 0.0)",0,0,0,,0.0367,0.3725,0.6273,"(0.0, 0.0, 0.0, 0.0, 0.0, 0.0, 0.0, 0.0, 0.0)","$VNYMR,-082.616,+001.759,-000.527,+00.0367,+00.3725,+00.6273,+00.203,+00.068,-09.609,-00.000871,+00.001385,-00.001183*6B"
1679334431.1013005,5244,1679334431,7664895,imu1_frame,0,0,0,,0.006684874606601566,0.014559591126014917,-0.6599820198786256,0.7511105539097866,"(0.0, 0.0, 0.0, 0.0, 0.0, 0.0, 0.0, 0.0, 0.0)",0.001985,-0.001362,0.000755,"(0.0, 0.0, 0.0, 0.0, 0.0, 0.0, 0.0, 0.0, 0.0)",0.287,0.056,-9.886,"(0.0, 0.0, 0.0, 0.0, 0.0, 0.0, 0.0, 0.0, 0.0)",0,0,0,,0.0283,0.3716,0.6246,"(0.0, 0.0, 0.0, 0.0, 0.0, 0.0, 0.0, 0.0, 0.0)","$VNYMR,-082.618,+001.759,-000.526,+00.0283,+00.3716,+00.6246,+00.287,+00.056,-09.886,+00.001985,-00.001362,+00.000755*69"
1679334431.1455653,5245,1679334431,10245108,imu1_frame,0,0,0,,0.006684747549945582,0.014559649461996513,-0.6599754651773894,0.7511163133108117,"(0.0, 0.0, 0.0, 0.0, 0.0, 0.0, 0.0, 0.0, 0.0)",0.000818,0.000328,-0.000876,"(0.0, 0.0, 0.0, 0.0, 0.0, 0.0, 0.0, 0.0, 0.0)",0.351,0.012,-9.808,"(0.0, 0.0, 0.0, 0.0, 0.0, 0.0, 0.0, 0.0, 0.0)",0,0,0,,-0.0118,0.3749,0.6221,"(0.0, 0.0, 0.0, 0.0, 0.0, 0.0, 0.0, 0.0, 0.0)","$VNYMR,-082.617,+001.759,-000.526,-00.0118,+00.3749,+00.6221,+00.351,+00.012,-09.808,+00.000818,+00.000328,-00.000876*63"
1679334431.146143,5246,1679334431,12632083,imu1_frame,0,0,0,,0.006685795878198899,0.01454721948587965,-0.659988819986677,0.7511048102836901,"(0.0, 0.0, 0.0, 0.0, 0.0, 0.0, 0.0, 0.0, 0.0)",-0.00153,0.000505,-0.000205,"(0.0, 0.0, 0.0, 0.0, 0.0, 0.0, 0.0, 0.0, 0.0)",0.197,0.049,-9.489,"(0.0, 0.0, 0.0, 0.0, 0.0, 0.0, 0.0, 0.0, 0.0)",0,0,0,,0.0167,0.373,0.6217,"(0.0, 0.0, 0.0, 0.0, 0.0, 0.0, 0.0, 0.0, 0.0)","$VNYMR,-082.619,+001.758,-000.525,+00.0167,+00.3730,+00.6217,+00.197,+00.049,-09.489,-00.001530,+00.000505,-00.000205*6E"
1679334431.192673,5247,1679334431,15174484,imu1_frame,0,0,0,,0.006692318312954302,0.01455342291252691,-0.6600280284076631,0.7510701781281296,"(0.0, 0.0, 0.0, 0.0, 0.0, 0.0, 0.0, 0.0, 0.0)",0.000377,-0.001099,-0.000843,"(0.0, 0.0, 0.0, 0.0, 0.0, 0.0, 0.0, 0.0, 0.0)",0.245,0.074,-9.786,"(0.0, 0.0, 0.0, 0.0, 0.0, 0.0, 0.0, 0.0, 0.0)",0,0,0,,0.0262,0.3716,0.6245,"(0.0, 0.0, 0.0, 0.0, 0.0, 0.0, 0.0, 0.0, 0.0)","$VNYMR,-082.625,+001.759,-000.525,+00.0262,+00.3716,+00.6245,+00.245,+00.074,-09.786,+00.000377,-00.001099,-00.000843*66"
1679334431.1928358,5248,1679334431,17641830,imu1_frame,0,0,0,,0.006698491777235865,0.014547838451937342,-0.6600084921891659,0.7510873989373477,"(0.0, 0.0, 0.0, 0.0, 0.0, 0.0, 0.0, 0.0, 0.0)",0.000851,-0.000279,-0.000566,"(0.0, 0.0, 0.0, 0.0, 0.0, 0.0, 0.0, 0.0, 0.0)",0.299,0.044,-9.692,"(0.0, 0.0, 0.0, 0.0, 0.0, 0.0, 0.0, 0.0, 0.0)",0,0,0,,0.0409,0.3678,0.6262,"(0.0, 0.0, 0.0, 0.0, 0.0, 0.0, 0.0, 0.0, 0.0)","$VNYMR,-082.622,+001.759,-000.524,+00.0409,+00.3678,+00.6262,+00.299,+00.044,-09.692,+00.000851,-00.000279,-00.000566*69"
1679334431.2402875,5249,1679334431,20159316,imu1_frame,0,0,0,,0.0067119494571540725,0.014548105346150605,-0.6600674889739807,0.7510354268374467,"(0.0, 0.0, 0.0, 0.0, 0.0, 0.0, 0.0, 0.0, 0.0)",-0.000683,0.003148,-0.001936,"(0.0, 0.0, 0.0, 0.0, 0.0, 0.0, 0.0, 0.0, 0.0)",0.282,0.018,-9.518,"(0.0, 0.0, 0.0, 0.0, 0.0, 0.0, 0.0, 0.0, 0.0)",0,0,0,,0.0125,0.372,0.6241,"(0.0, 0.0, 0.0, 0.0, 0.0, 0.0, 0.0, 0.0, 0.0)","$VNYMR,-082.631,+001.760,-000.523,+00.0125,+00.3720,+00.6241,+00.282,+00.018,-09.518,-00.000683,+00.003148,-00.001936*69"
1679334431.2403507,5250,1679334431,22624969,imu1_frame,0,0,0,,0.006705776453410273,0.014553689969251033,-0.660087023829503,0.7510182046011566,"(0.0, 0.0, 0.0, 0.0, 0.0, 0.0, 0.0, 0.0, 0.0)",0.000613,-0.000671,5.4e-05,"(0.0, 0.0, 0.0, 0.0, 0.0, 0.0, 0.0, 0.0, 0.0)",0.242,0.09,-9.785,"(0.0, 0.0, 0.0, 0.0, 0.0, 0.0, 0.0, 0.0, 0.0)",0,0,0,,0.0367,0.3702,0.6236,"(0.0, 0.0, 0.0, 0.0, 0.0, 0.0, 0.0, 0.0, 0.0)","$VNYMR,-082.634,+001.760,-000.524,+00.0367,+00.3702,+00.6236,+00.242,+00.090,-09.785,+00.000613,-00.000671,+00.000054*68"
1679334431.284619,5251,1679334431,25141525,imu1_frame,0,0,0,,0.006705365184690951,0.014565827832952113,-0.6601064396468972,0.751000907505429,"(0.0, 0.0, 0.0, 0.0, 0.0, 0.0, 0.0, 0.0, 0.0)",-0.002121,0.000544,-0.000915,"(0.0, 0.0, 0.0, 0.0, 0.0, 0.0, 0.0, 0.0, 0.0)",0.344,0.025,-9.673,"(0.0, 0.0, 0.0, 0.0, 0.0, 0.0, 0.0, 0.0, 0.0)",0,0,0,,-0.0041,0.3838,0.6197,"(0.0, 0.0, 0.0, 0.0, 0.0, 0.0, 0.0, 0.0, 0.0)","$VNYMR,-082.637,+001.761,-000.525,-00.0041,+00.3838,+00.6197,+00.344,+00.025,-09.673,-00.002121,+00.000544,-00.000915*6E"
1679334431.2846975,5252,1679334431,27640867,imu1_frame,0,0,0,,0.0067004931091646635,0.014558865641760038,-0.6601524329931248,0.7509606567834145,"(0.0, 0.0, 0.0, 0.0, 0.0, 0.0, 0.0, 0.0, 0.0)",-0.001611,0.00084,-9.8e-05,"(0.0, 0.0, 0.0, 0.0, 0.0, 0.0, 0.0, 0.0, 0.0)",0.255,0.057,-9.702,"(0.0, 0.0, 0.0, 0.0, 0.0, 0.0, 0.0, 0.0, 0.0)",0,0,0,,0.0368,0.3725,0.6235,"(0.0, 0.0, 0.0, 0.0, 0.0, 0.0, 0.0, 0.0, 0.0)","$VNYMR,-082.644,+001.760,-000.525,+00.0368,+00.3725,+00.6235,+00.255,+00.057,-09.702,-00.001611,+00.000840,-00.000098*6C"
1679334431.328233,5253,1679334431,30164599,imu1_frame,0,0,0,,0.006707427474008579,0.01455292912939195,-0.6601722198943146,0.750943315271032,"(0.0, 0.0, 0.0, 0.0, 0.0, 0.0, 0.0, 0.0, 0.0)",0.000344,-0.001223,0.001004,"(0.0, 0.0, 0.0, 0.0, 0.0, 0.0, 0.0, 0.0, 0.0)",0.278,0.064,-9.732,"(0.0, 0.0, 0.0, 0.0, 0.0, 0.0, 0.0, 0.0, 0.0)",0,0,0,,0.0294,0.375,0.6284,"(0.0, 0.0, 0.0, 0.0, 0.0, 0.0, 0.0, 0.0, 0.0)","$VNYMR,-082.647,+001.760,-000.524,+00.0294,+00.3750,+00.6284,+00.278,+00.064,-09.732,+00.000344,-00.001223,+00.001004*60"
1679334431.3299925,5254,1679334431,32605624,imu1_frame,0,0,0,,0.006714078859297288,0.014559071423571105,-0.660217972686914,0.7509029119170705,"(0.0, 0.0, 0.0, 0.0, 0.0, 0.0, 0.0, 0.0, 0.0)",-0.001043,0.00054,6.6e-05,"(0.0, 0.0, 0.0, 0.0, 0.0, 0.0, 0.0, 0.0, 0.0)",0.332,0.03,-9.732,"(0.0, 0.0, 0.0, 0.0, 0.0, 0.0, 0.0, 0.0, 0.0)",0,0,0,,-0.0137,0.3806,0.622,"(0.0, 0.0, 0.0, 0.0, 0.0, 0.0, 0.0, 0.0, 0.0)","$VNYMR,-082.654,+001.761,-000.524,-00.0137,+00.3806,+00.6220,+00.332,+00.030,-09.732,-00.001043,+00.000540,+00.000066*60"
1679334431.372258,5255,1679334431,35175848,imu1_frame,0,0,0,,0.00672088572528123,0.014553192634946723,-0.660231205340236,0.7508913302030974,"(0.0, 0.0, 0.0, 0.0, 0.0, 0.0, 0.0, 0.0, 0.0)",-0.0015,0.001631,-0.000496,"(0.0, 0.0, 0.0, 0.0, 0.0, 0.0, 0.0, 0.0, 0.0)",0.337,0.029,-9.702,"(0.0, 0.0, 0.0, 0.0, 0.0, 0.0, 0.0, 0.0, 0.0)",0,0,0,,0.0397,0.3644,0.6263,"(0.0, 0.0, 0.0, 0.0, 0.0, 0.0, 0.0, 0.0, 0.0)","$VNYMR,-082.656,+001.761,-000.523,+00.0397,+00.3644,+00.6263,+00.337,+00.029,-09.702,-00.001500,+00.001631,-00.000496*61"
1679334431.4164565,5256,1679334431,37641763,imu1_frame,0,0,0,,0.006714714112236698,0.014558778452756155,-0.6602507363788622,0.7508741037587624,"(0.0, 0.0, 0.0, 0.0, 0.0, 0.0, 0.0, 0.0, 0.0)",0.000201,-0.001573,-0.000581,"(0.0, 0.0, 0.0, 0.0, 0.0, 0.0, 0.0, 0.0, 0.0)",0.233,0.104,-9.716,"(0.0, 0.0, 0.0, 0.0, 0.0, 0.0, 0.0, 0.0, 0.0)",0,0,0,,0.0229,0.3671,0.6245,"(0.0, 0.0, 0.0, 0.0, 0.0, 0.0, 0.0, 0.0, 0.0)","$VNYMR,-082.659,+001.761,-000.524,+00.0229,+00.3671,+00.6245,+00.233,+00.104,-09.716,+00.000201,-00.001573,-00.000581*64"
1679334431.4164662,5257,1679334431,40190124,imu1_frame,0,0,0,,0.006709178279667605,0.014564071873308796,-0.6603030286009819,0.7508280663092263,"(0.0, 0.0, 0.0, 0.0, 0.0, 0.0, 0.0, 0.0, 0.0)",7.3e-05,-0.001497,-0.001492,"(0.0, 0.0, 0.0, 0.0, 0.0, 0.0, 0.0, 0.0, 0.0)",0.297,0.045,-9.718,"(0.0, 0.0, 0.0, 0.0, 0.0, 0.0, 0.0, 0.0, 0.0)",0,0,0,,0.0347,0.3748,0.6285,"(0.0, 0.0, 0.0, 0.0, 0.0, 0.0, 0.0, 0.0, 0.0)","$VNYMR,-082.667,+001.761,-000.525,+00.0347,+00.3748,+00.6285,+00.297,+00.045,-09.718,+00.000073,-00.001497,-00.001492*6C"
1679334431.4608302,5258,1679334431,42611360,imu1_frame,0,0,0,,0.0067036692014396,0.01455740347446804,-0.6603162514815344,0.7508166159940085,"(0.0, 0.0, 0.0, 0.0, 0.0, 0.0, 0.0, 0.0, 0.0)",-0.001709,0.001813,-0.001367,"(0.0, 0.0, 0.0, 0.0, 0.0, 0.0, 0.0, 0.0, 0.0)",0.282,0.031,-9.671,"(0.0, 0.0, 0.0, 0.0, 0.0, 0.0, 0.0, 0.0, 0.0)",0,0,0,,0.0242,0.3785,0.6206,"(0.0, 0.0, 0.0, 0.0, 0.0, 0.0, 0.0, 0.0, 0.0)","$VNYMR,-082.669,+001.760,-000.525,+00.0242,+00.3785,+00.6206,+00.282,+00.031,-09.671,-00.001709,+00.001813,-00.001367*62"
1679334431.4613242,5259,1679334431,45202660,imu1_frame,0,0,0,,0.006698515022874434,0.01456252287607372,-0.660388194603436,0.7507532852091868,"(0.0, 0.0, 0.0, 0.0, 0.0, 0.0, 0.0, 0.0, 0.0)",-0.000716,-0.000647,-0.000213,"(0.0, 0.0, 0.0, 0.0, 0.0, 0.0, 0.0, 0.0, 0.0)",0.211,0.087,-9.686,"(0.0, 0.0, 0.0, 0.0, 0.0, 0.0, 0.0, 0.0, 0.0)",0,0,0,,0.0356,0.3702,0.6248,"(0.0, 0.0, 0.0, 0.0, 0.0, 0.0, 0.0, 0.0, 0.0)","$VNYMR,-082.680,+001.760,-000.526,+00.0356,+00.3702,+00.6248,+00.211,+00.087,-09.686,-00.000716,-00.000647,-00.000213*6C"
1679334431.504868,5260,1679334431,47614693,imu1_frame,0,0,0,,0.006692497073991884,0.014556088938218564,-0.6603752099581147,0.7507648851874419,"(0.0, 0.0, 0.0, 0.0, 0.0, 0.0, 0.0, 0.0, 0.0)",0.000153,0.00072,-0.001055,"(0.0, 0.0, 0.0, 0.0, 0.0, 0.0, 0.0, 0.0, 0.0)",0.289,0.059,-9.703,"(0.0, 0.0, 0.0, 0.0, 0.0, 0.0, 0.0, 0.0, 0.0)",0,0,0,,0.0293,0.3715,0.6284,"(0.0, 0.0, 0.0, 0.0, 0.0, 0.0, 0.0, 0.0, 0.0)","$VNYMR,-082.678,+001.759,-000.526,+00.0293,+00.3715,+00.6284,+00.289,+00.059,-09.703,+00.000153,+00.000720,-00.001055*67"
1679334431.509685,5261,1679334431,50149083,imu1_frame,0,0,0,,0.006705320643335271,0.01455664287364521,-0.6604014246753689,0.7507417006601287,"(0.0, 0.0, 0.0, 0.0, 0.0, 0.0, 0.0, 0.0, 0.0)",3e-05,0.000843,-0.000319,"(0.0, 0.0, 0.0, 0.0, 0.0, 0.0, 0.0, 0.0, 0.0)",0.344,0.055,-9.714,"(0.0, 0.0, 0.0, 0.0, 0.0, 0.0, 0.0, 0.0, 0.0)",0,0,0,,0.0188,0.373,0.6205,"(0.0, 0.0, 0.0, 0.0, 0.0, 0.0, 0.0, 0.0, 0.0)","$VNYMR,-082.682,+001.760,-000.525,+00.0188,+00.3730,+00.6205,+00.344,+00.055,-09.714,+00.000030,+00.000843,-00.000319*62"
1679334431.5529373,5262,1679334431,52604866,imu1_frame,0,0,0,,0.006706082818181959,0.014556291763923555,-0.6604407325136125,0.7507071210933078,"(0.0, 0.0, 0.0, 0.0, 0.0, 0.0, 0.0, 0.0, 0.0)",-0.000883,-0.000291,-0.00096,"(0.0, 0.0, 0.0, 0.0, 0.0, 0.0, 0.0, 0.0, 0.0)",0.219,0.119,-9.633,"(0.0, 0.0, 0.0, 0.0, 0.0, 0.0, 0.0, 0.0, 0.0)",0,0,0,,0.0357,0.3737,0.6235,"(0.0, 0.0, 0.0, 0.0, 0.0, 0.0, 0.0, 0.0, 0.0)","$VNYMR,-082.688,+001.760,-000.525,+00.0357,+00.3737,+00.6235,+00.219,+00.119,-09.633,-00.000883,-00.000291,-00.000960*69"
1679334431.5969098,5263,1679334431,55145120,imu1_frame,0,0,0,,0.006706717949843443,0.014555999142004363,-0.6604734876623621,0.750678303215455,"(0.0, 0.0, 0.0, 0.0, 0.0, 0.0, 0.0, 0.0, 0.0)",0.000376,0.000802,-0.000653,"(0.0, 0.0, 0.0, 0.0, 0.0, 0.0, 0.0, 0.0, 0.0)",0.291,0.042,-9.797,"(0.0, 0.0, 0.0, 0.0, 0.0, 0.0, 0.0, 0.0, 0.0)",0,0,0,,0.0241,0.374,0.6219,"(0.0, 0.0, 0.0, 0.0, 0.0, 0.0, 0.0, 0.0, 0.0)","$VNYMR,-082.693,+001.760,-000.525,+00.0241,+00.3740,+00.6219,+00.291,+00.042,-09.797,+00.000376,+00.000802,-00.000653*65"
1679334431.5971165,5264,1679334431,57631850,imu1_frame,0,0,0,,0.006714284635294813,0.014549766712921339,-0.6605260202806615,0.7506321330736028,"(0.0, 0.0, 0.0, 0.0, 0.0, 0.0, 0.0, 0.0, 0.0)",0.001199,0.001387,-0.000697,"(0.0, 0.0, 0.0, 0.0, 0.0, 0.0, 0.0, 0.0, 0.0)",0.355,0.011,-9.688,"(0.0, 0.0, 0.0, 0.0, 0.0, 0.0, 0.0, 0.0, 0.0)",0,0,0,,0.0409,0.369,0.6275,"(0.0, 0.0, 0.0, 0.0, 0.0, 0.0, 0.0, 0.0, 0.0)","$VNYMR,-082.701,+001.760,-000.524,+00.0409,+00.3690,+00.6275,+00.355,+00.011,-09.688,+00.001199,+00.001387,-00.000697*6F"
1679334431.6400423,5265,1679334431,60145211,imu1_frame,0,0,0,,0.006720708215514532,0.014544061185239912,-0.6605195967004419,0.7506378386012843,"(0.0, 0.0, 0.0, 0.0, 0.0, 0.0, 0.0, 0.0, 0.0)",-0.000282,-0.002101,-0.000642,"(0.0, 0.0, 0.0, 0.0, 0.0, 0.0, 0.0, 0.0, 0.0)",0.195,0.108,-9.701,"(0.0, 0.0, 0.0, 0.0, 0.0, 0.0, 0.0, 0.0, 0.0)",0,0,0,,0.0167,0.373,0.6255,"(0.0, 0.0, 0.0, 0.0, 0.0, 0.0, 0.0, 0.0, 0.0)","$VNYMR,-082.700,+001.760,-000.523,+00.0167,+00.3730,+00.6255,+00.195,+00.108,-09.701,-00.000282,-00.002101,-00.000642*65"
1679334431.6401086,5266,1679334431,62597012,imu1_frame,0,0,0,,0.0067217235661529255,0.01454359195585159,-0.6605719994978477,0.7505917238051173,"(0.0, 0.0, 0.0, 0.0, 0.0, 0.0, 0.0, 0.0, 0.0)",0.000291,-0.000128,-0.000422,"(0.0, 0.0, 0.0, 0.0, 0.0, 0.0, 0.0, 0.0, 0.0)",0.313,0.018,-9.776,"(0.0, 0.0, 0.0, 0.0, 0.0, 0.0, 0.0, 0.0, 0.0)",0,0,0,,0.024,0.3705,0.6245,"(0.0, 0.0, 0.0, 0.0, 0.0, 0.0, 0.0, 0.0, 0.0)","$VNYMR,-082.708,+001.760,-000.523,+00.0240,+00.3705,+00.6245,+00.313,+00.018,-09.776,+00.000291,-00.000128,-00.000422*69"
1679334431.68415,5267,1679334431,65140724,imu1_frame,0,0,0,,0.006728273714356207,0.014537827377129026,-0.6605721263894774,0.7505916651184331,"(0.0, 0.0, 0.0, 0.0, 0.0, 0.0, 0.0, 0.0, 0.0)",-0.001116,0.000949,-0.000393,"(0.0, 0.0, 0.0, 0.0, 0.0, 0.0, 0.0, 0.0, 0.0)",0.319,0.0,-9.787,"(0.0, 0.0, 0.0, 0.0, 0.0, 0.0, 0.0, 0.0, 0.0)",0,0,0,,0.0431,0.3723,0.6212,"(0.0, 0.0, 0.0, 0.0, 0.0, 0.0, 0.0, 0.0, 0.0)","$VNYMR,-082.708,+001.760,-000.522,+00.0431,+00.3723,+00.6212,+00.319,+00.000,-09.787,-00.001116,+00.000949,-00.000393*6C"
1679334431.6842296,5268,1679334431,67647457,imu1_frame,0,0,0,,0.006710826578110312,0.014530200472123667,-0.6606049864072959,0.7505630486606003,"(0.0, 0.0, 0.0, 0.0, 0.0, 0.0, 0.0, 0.0, 0.0)",-0.001865,-0.000566,0.000484,"(0.0, 0.0, 0.0, 0.0, 0.0, 0.0, 0.0, 0.0, 0.0)",0.221,0.072,-9.594,"(0.0, 0.0, 0.0, 0.0, 0.0, 0.0, 0.0, 0.0, 0.0)",0,0,0,,0.0146,0.3742,0.6203,"(0.0, 0.0, 0.0, 0.0, 0.0, 0.0, 0.0, 0.0, 0.0)","$VNYMR,-082.713,+001.758,-000.523,+00.0146,+00.3742,+00.6203,+00.221,+00.072,-09.594,-00.001865,-00.000566,+00.000484*6C"
1679334431.7279484,5269,1679334431,70140957,imu1_frame,0,0,0,,0.006717353494363728,0.01453639786247926,-0.6606441665143427,0.75052838423992,"(0.0, 0.0, 0.0, 0.0, 0.0, 0.0, 0.0, 0.0, 0.0)",-0.00041,0.000636,-0.000416,"(0.0, 0.0, 0.0, 0.0, 0.0, 0.0, 0.0, 0.0, 0.0)",0.294,0.049,-9.75,"(0.0, 0.0, 0.0, 0.0, 0.0, 0.0, 0.0, 0.0, 0.0)",0,0,0,,0.0378,0.3736,0.6299,"(0.0, 0.0, 0.0, 0.0, 0.0, 0.0, 0.0, 0.0, 0.0)","$VNYMR,-082.719,+001.759,-000.523,+00.0378,+00.3736,+00.6299,+00.294,+00.049,-09.750,-00.000410,+00.000636,-00.000416*66"
