Time,Header.seq,Header.stamp.secs,Header.stamp.nsecs,Header.frame_id,IMU.header.seq,IMU.header.stamp.secs,IMU.header.stamp.nsecs,IMU.header.frame_id,IMU.orientation.x,IMU.orientation.y,IMU.orientation.z,IMU.orientation.w,IMU.orientation_covariance,IMU.angular_velocity.x,IMU.angular_velocity.y,IMU.angular_velocity.z,IMU.angular_velocity_covariance,IMU.linear_acceleration.x,IMU.linear_acceleration.y,IMU.linear_acceleration.z,IMU.linear_acceleration_covariance,MagField.header.seq,MagField.header.stamp.secs,MagField.header.stamp.nsecs,MagField.header.frame_id,MagField.magnetic_field.x,MagField.magnetic_field.y,MagField.magnetic_field.z,MagField.magnetic_field_covariance,IMU_backup
1698874269.370077,0,1698874269,336280345,GPS1_Frame,0,0,0,,-0.20720963491050093,-0.7889284200048312,0.5718618248566529,0.08735083617548439,"(0.0, 0.0, 0.0, 0.0, 0.0, 0.0, 0.0, 0.0, 0.0)",0.108807,0.012512,0.885959,"(0.0, 0.0, 0.0, 0.0, 0.0, 0.0, 0.0, 0.0, 0.0)",0.959,9.074,1.537,"(0.0, 0.0, 0.0, 0.0, 0.0, 0.0, 0.0, 0.0, 0.0)",0,0,0,,-3.091e-05,-3.772e-05,-2.774e-05,"(0.0, 0.0, 0.0, 0.0, 0.0, 0.0, 0.0, 0.0, 0.0)","$VNYMR,+154.598,+005.691,-109.410,-00.3091,-00.3772,-00.2774,+00.959,+09.074,+01.537,+00.108807,+00.012512,+00.885959*6C
"
1698874269.3803973,0,1698874269,370131492,GPS1_Frame,0,0,0,,-0.2145615170121232,-0.7864854287938474,0.5735210944484567,0.08048341403704741,"(0.0, 0.0, 0.0, 0.0, 0.0, 0.0, 0.0, 0.0, 0.0)",0.022236,-0.144908,0.752288,"(0.0, 0.0, 0.0, 0.0, 0.0, 0.0, 0.0, 0.0, 0.0)",1.622,8.221,1.07,"(0.0, 0.0, 0.0, 0.0, 0.0, 0.0, 0.0, 0.0, 0.0)",0,0,0,,-3.132e-05,-3.7369999999999996e-05,-2.7510000000000003e-05,"(0.0, 0.0, 0.0, 0.0, 0.0, 0.0, 0.0, 0.0, 0.0)","$VNYMR,+154.347,+006.864,-109.364,-00.3132,-00.3737,-00.2751,+01.622,+08.221,+01.070,+00.022236,-00.144908,+00.752288*62
"
1698874269.402728,0,1698874269,381421327,GPS1_Frame,0,0,0,,-0.21960433455655295,-0.7846774104357842,0.5745646203949236,0.07701165357400519,"(0.0, 0.0, 0.0, 0.0, 0.0, 0.0, 0.0, 0.0, 0.0)",0.107739,0.152722,0.370879,"(0.0, 0.0, 0.0, 0.0, 0.0, 0.0, 0.0, 0.0, 0.0)",1.731,8.185,0.8,"(0.0, 0.0, 0.0, 0.0, 0.0, 0.0, 0.0, 0.0, 0.0)",0,0,0,,-3.196e-05,-3.747e-05,-2.752e-05,"(0.0, 0.0, 0.0, 0.0, 0.0, 0.0, 0.0, 0.0, 0.0)","$VNYMR,+154.092,+007.556,-109.315,-00.3196,-00.3747,-00.2752,+01.731,+08.185,+00.800,+00.107739,+00.152722,+00.370879*63
"
1698874269.4295015,0,1698874269,416414737,GPS1_Frame,0,0,0,,-0.22339552626338127,-0.7827514734070423,0.5754519135085778,0.07905482252163645,"(0.0, 0.0, 0.0, 0.0, 0.0, 0.0, 0.0, 0.0, 0.0)",0.151544,0.334397,0.098713,"(0.0, 0.0, 0.0, 0.0, 0.0, 0.0, 0.0, 0.0, 0.0)",1.312,9.255,1.5,"(0.0, 0.0, 0.0, 0.0, 0.0, 0.0, 0.0, 0.0, 0.0)",0,0,0,,-3.1740000000000004e-05,-3.7130000000000005e-05,-2.803e-05,"(0.0, 0.0, 0.0, 0.0, 0.0, 0.0, 0.0, 0.0, 0.0)","$VNYMR,+153.597,+007.663,-109.156,-00.3174,-00.3713,-00.2803,+01.312,+09.255,+01.500,+00.151544,+00.334397,+00.098713*61
"
1698874269.4588368,0,1698874269,433184862,GPS1_Frame,0,0,0,,-0.22663940030551455,-0.781100744947477,0.5762126836188114,0.08059250404634903,"(0.0, 0.0, 0.0, 0.0, 0.0, 0.0, 0.0, 0.0, 0.0)",0.095328,0.140524,0.237658,"(0.0, 0.0, 0.0, 0.0, 0.0, 0.0, 0.0, 0.0, 0.0)",1.057,10.154,2.009,"(0.0, 0.0, 0.0, 0.0, 0.0, 0.0, 0.0, 0.0, 0.0)",0,0,0,,-3.2040000000000005e-05,-3.655e-05,-2.754e-05,"(0.0, 0.0, 0.0, 0.0, 0.0, 0.0, 0.0, 0.0, 0.0)","$VNYMR,+153.187,+007.775,-109.024,-00.3204,-00.3655,-00.2754,+01.057,+10.154,+02.009,+00.095328,+00.140524,+00.237658*68
"
1698874269.4872515,0,1698874269,459289312,GPS1_Frame,0,0,0,,-0.2300594263247481,-0.7793274049883677,0.577540360104889,0.07854036314621604,"(0.0, 0.0, 0.0, 0.0, 0.0, 0.0, 0.0, 0.0, 0.0)",0.112576,-0.054807,0.398038,"(0.0, 0.0, 0.0, 0.0, 0.0, 0.0, 0.0, 0.0, 0.0)",0.746,10.396,2.041,"(0.0, 0.0, 0.0, 0.0, 0.0, 0.0, 0.0, 0.0, 0.0)",0,0,0,,-3.226e-05,-3.7e-05,-2.754e-05,"(0.0, 0.0, 0.0, 0.0, 0.0, 0.0, 0.0, 0.0, 0.0)","$VNYMR,+153.000,+008.240,-108.899,-00.3226,-00.3700,-00.2754,+00.746,+10.396,+02.041,+00.112576,-00.054807,+00.398038*6B
"
1698874269.496764,0,1698874269,487566709,GPS1_Frame,0,0,0,,-0.23345095362890161,-0.7777037647914411,0.5791542426770419,0.07251116926486312,"(0.0, 0.0, 0.0, 0.0, 0.0, 0.0, 0.0, 0.0, 0.0)",0.016131,-0.327937,0.602631,"(0.0, 0.0, 0.0, 0.0, 0.0, 0.0, 0.0, 0.0, 0.0)",0.768,10.703,1.83,"(0.0, 0.0, 0.0, 0.0, 0.0, 0.0, 0.0, 0.0, 0.0)",0,0,0,,-3.256e-05,-3.642000000000001e-05,-2.768e-05,"(0.0, 0.0, 0.0, 0.0, 0.0, 0.0, 0.0, 0.0, 0.0)","$VNYMR,+153.079,+009.069,-108.825,-00.3256,-00.3642,-00.2768,+00.768,+10.703,+01.830,+00.016131,-00.327937,+00.602631*62
"
1698874269.5400748,0,1698874269,511165857,GPS1_Frame,0,0,0,,-0.23753982980543442,-0.7760936350024403,0.5808102714742472,0.06255339730754284,"(0.0, 0.0, 0.0, 0.0, 0.0, 0.0, 0.0, 0.0, 0.0)",-0.07344,-0.529917,0.836157,"(0.0, 0.0, 0.0, 0.0, 0.0, 0.0, 0.0, 0.0, 0.0)",1.453,10.223,1.52,"(0.0, 0.0, 0.0, 0.0, 0.0, 0.0, 0.0, 0.0, 0.0)",0,0,0,,-3.32e-05,-3.652e-05,-2.7450000000000003e-05,"(0.0, 0.0, 0.0, 0.0, 0.0, 0.0, 0.0, 0.0, 0.0)","$VNYMR,+153.346,+010.302,-108.826,-00.3320,-00.3652,-00.2745,+01.453,+10.223,+01.520,-00.073440,-00.529917,+00.836157*65
"
1698874269.583644,0,1698874269,540722370,GPS1_Frame,0,0,0,,-0.24172936317293736,-0.774417541834459,0.5823644907153314,0.051922883519244456,"(0.0, 0.0, 0.0, 0.0, 0.0, 0.0, 0.0, 0.0, 0.0)",-0.011326,-0.400553,0.719626,"(0.0, 0.0, 0.0, 0.0, 0.0, 0.0, 0.0, 0.0, 0.0)",1.731,9.485,0.869,"(0.0, 0.0, 0.0, 0.0, 0.0, 0.0, 0.0, 0.0, 0.0)",0,0,0,,-3.403e-05,-3.604e-05,-2.7350000000000004e-05,"(0.0, 0.0, 0.0, 0.0, 0.0, 0.0, 0.0, 0.0, 0.0)","$VNYMR,+153.644,+011.603,-108.839,-00.3403,-00.3604,-00.2735,+01.731,+09.485,+00.869,-00.011326,-00.400553,+00.719626*69
"
1698874269.5836532,0,1698874269,559774637,GPS1_Frame,0,0,0,,-0.2458024416383747,-0.7726133970610782,0.5836112981171271,0.04524987377215128,"(0.0, 0.0, 0.0, 0.0, 0.0, 0.0, 0.0, 0.0, 0.0)",0.019016,-0.131075,0.511329,"(0.0, 0.0, 0.0, 0.0, 0.0, 0.0, 0.0, 0.0, 0.0)",1.485,9.724,0.843,"(0.0, 0.0, 0.0, 0.0, 0.0, 0.0, 0.0, 0.0, 0.0)",0,0,0,,-3.422e-05,-3.5010000000000005e-05,-2.724e-05,"(0.0, 0.0, 0.0, 0.0, 0.0, 0.0, 0.0, 0.0, 0.0)","$VNYMR,+153.692,+012.532,-108.807,-00.3422,-00.3501,-00.2724,+01.485,+09.724,+00.843,+00.019016,-00.131075,+00.511329*6C
"
1698874269.6308496,0,1698874269,583694934,GPS1_Frame,0,0,0,,-0.250860656650841,-0.7707444841181017,0.5842136401008077,0.041428177203372496,"(0.0, 0.0, 0.0, 0.0, 0.0, 0.0, 0.0, 0.0, 0.0)",0.041301,0.064003,0.581908,"(0.0, 0.0, 0.0, 0.0, 0.0, 0.0, 0.0, 0.0, 0.0)",1.303,10.578,1.205,"(0.0, 0.0, 0.0, 0.0, 0.0, 0.0, 0.0, 0.0, 0.0)",0,0,0,,-3.455e-05,-3.5340000000000004e-05,-2.6989999999999997e-05,"(0.0, 0.0, 0.0, 0.0, 0.0, 0.0, 0.0, 0.0, 0.0)","$VNYMR,+153.448,+013.253,-108.817,-00.3455,-00.3534,-00.2699,+01.303,+10.578,+01.205,+00.041301,+00.064003,+00.581908*65
"
1698874269.6308706,0,1698874269,606727361,GPS1_Frame,0,0,0,,-0.2585876446750409,-0.7679018020125282,0.5848990830630674,0.03677383742974974,"(0.0, 0.0, 0.0, 0.0, 0.0, 0.0, 0.0, 0.0, 0.0)",0.047329,0.022632,0.880079,"(0.0, 0.0, 0.0, 0.0, 0.0, 0.0, 0.0, 0.0, 0.0)",1.765,10.35,1.918,"(0.0, 0.0, 0.0, 0.0, 0.0, 0.0, 0.0, 0.0, 0.0)",0,0,0,,-3.5270000000000006e-05,-3.453e-05,-2.7410000000000004e-05,"(0.0, 0.0, 0.0, 0.0, 0.0, 0.0, 0.0, 0.0, 0.0)","$VNYMR,+152.992,+014.242,-108.845,-00.3527,-00.3453,-00.2741,+01.765,+10.350,+01.918,+00.047329,+00.022632,+00.880079*68
"
1698874269.6752439,0,1698874269,632096052,GPS1_Frame,0,0,0,,-0.26656625521635247,-0.7648458840695029,0.5857680089632473,0.02879313941034696,"(0.0, 0.0, 0.0, 0.0, 0.0, 0.0, 0.0, 0.0, 0.0)",0.032161,-0.198124,0.943148,"(0.0, 0.0, 0.0, 0.0, 0.0, 0.0, 0.0, 0.0, 0.0)",2.365,9.529,2.003,"(0.0, 0.0, 0.0, 0.0, 0.0, 0.0, 0.0, 0.0, 0.0)",0,0,0,,-3.59e-05,-3.4399999999999996e-05,-2.7050000000000004e-05,"(0.0, 0.0, 0.0, 0.0, 0.0, 0.0, 0.0, 0.0, 0.0)","$VNYMR,+152.723,+015.560,-108.903,-00.3590,-00.3440,-00.2705,+02.365,+09.529,+02.003,+00.032161,-00.198124,+00.943148*67
"
1698874269.6752543,0,1698874269,657992601,GPS1_Frame,0,0,0,,-0.27258933270866836,-0.7616962282412679,0.5875121833430024,0.018529597945115273,"(0.0, 0.0, 0.0, 0.0, 0.0, 0.0, 0.0, 0.0, 0.0)",0.011592,-0.489449,0.855432,"(0.0, 0.0, 0.0, 0.0, 0.0, 0.0, 0.0, 0.0, 0.0)",2.78,8.717,1.894,"(0.0, 0.0, 0.0, 0.0, 0.0, 0.0, 0.0, 0.0, 0.0)",0,0,0,,-3.641e-05,-3.381e-05,-2.6560000000000003e-05,"(0.0, 0.0, 0.0, 0.0, 0.0, 0.0, 0.0, 0.0, 0.0)","$VNYMR,+152.809,+016.982,-108.848,-00.3641,-00.3381,-00.2656,+02.780,+08.717,+01.894,+00.011592,-00.489449,+00.855432*67
"
1698874269.7229676,0,1698874269,684975862,GPS1_Frame,0,0,0,,-0.2749668603941912,-0.7592226282271398,0.589844278086468,0.007612757811022525,"(0.0, 0.0, 0.0, 0.0, 0.0, 0.0, 0.0, 0.0, 0.0)",0.007306,-0.648086,0.640032,"(0.0, 0.0, 0.0, 0.0, 0.0, 0.0, 0.0, 0.0, 0.0)",2.885,8.772,1.192,"(0.0, 0.0, 0.0, 0.0, 0.0, 0.0, 0.0, 0.0, 0.0)",0,0,0,,-3.693e-05,-3.3339999999999996e-05,-2.6200000000000003e-05,"(0.0, 0.0, 0.0, 0.0, 0.0, 0.0, 0.0, 0.0, 0.0)","$VNYMR,+153.318,+018.229,-108.670,-00.3693,-00.3334,-00.2620,+02.885,+08.772,+01.192,+00.007306,-00.648086,+00.640032*60
"
1698874269.726389,0,1698874269,716851949,GPS1_Frame,0,0,0,,-0.2762572848773478,-0.7566579322042966,0.5925756219880886,-0.002195087684796204,"(0.0, 0.0, 0.0, 0.0, 0.0, 0.0, 0.0, 0.0, 0.0)",0.056936,-0.560045,0.599877,"(0.0, 0.0, 0.0, 0.0, 0.0, 0.0, 0.0, 0.0, 0.0)",3.179,8.974,0.482,"(0.0, 0.0, 0.0, 0.0, 0.0, 0.0, 0.0, 0.0, 0.0)",0,0,0,,-3.745e-05,-3.3100000000000005e-05,-2.6090000000000003e-05,"(0.0, 0.0, 0.0, 0.0, 0.0, 0.0, 0.0, 0.0, 0.0)","$VNYMR,+153.881,+019.313,-108.388,-00.3745,-00.3310,-00.2609,+03.179,+08.974,+00.482,+00.056936,-00.560045,+00.599877*64
"
1698874269.7668192,0,1698874269,731484413,GPS1_Frame,0,0,0,,-0.2786492145661595,-0.7538553736283531,0.5949476221572906,-0.009696275713102692,"(0.0, 0.0, 0.0, 0.0, 0.0, 0.0, 0.0, 0.0, 0.0)",0.11553,-0.260519,0.516351,"(0.0, 0.0, 0.0, 0.0, 0.0, 0.0, 0.0, 0.0, 0.0)",3.266,8.713,-0.027,"(0.0, 0.0, 0.0, 0.0, 0.0, 0.0, 0.0, 0.0, 0.0)",0,0,0,,-3.775e-05,-3.241e-05,-2.598e-05,"(0.0, 0.0, 0.0, 0.0, 0.0, 0.0, 0.0, 0.0, 0.0)","$VNYMR,+154.182,+020.254,-108.127,-00.3775,-00.3241,-00.2598,+03.266,+08.713,-00.027,+00.115530,-00.260519,+00.516351*6B
"
1698874269.8162377,0,1698874269,757795095,GPS1_Frame,0,0,0,,-0.282920791562196,-0.7507402389972798,0.5968287600163525,-0.01184696034729818,"(0.0, 0.0, 0.0, 0.0, 0.0, 0.0, 0.0, 0.0, 0.0)",0.262522,0.185867,0.380286,"(0.0, 0.0, 0.0, 0.0, 0.0, 0.0, 0.0, 0.0, 0.0)",3.46,8.826,0.311,"(0.0, 0.0, 0.0, 0.0, 0.0, 0.0, 0.0, 0.0, 0.0)",0,0,0,,-3.797e-05,-3.274e-05,-2.5480000000000003e-05,"(0.0, 0.0, 0.0, 0.0, 0.0, 0.0, 0.0, 0.0, 0.0)","$VNYMR,+153.937,+020.824,-107.902,-00.3797,-00.3274,-00.2548,+03.460,+08.826,+00.311,+00.262522,+00.185867,+00.380286*61
"
1698874269.8162475,0,1698874269,781890153,GPS1_Frame,0,0,0,,-0.28824050793012823,-0.7475345063222152,0.5983180380274784,-0.011184668825330951,"(0.0, 0.0, 0.0, 0.0, 0.0, 0.0, 0.0, 0.0, 0.0)",0.23388,0.255598,0.35967,"(0.0, 0.0, 0.0, 0.0, 0.0, 0.0, 0.0, 0.0, 0.0)",3.541,9.089,0.995,"(0.0, 0.0, 0.0, 0.0, 0.0, 0.0, 0.0, 0.0, 0.0)",0,0,0,,-3.838e-05,-3.205e-05,-2.525e-05,"(0.0, 0.0, 0.0, 0.0, 0.0, 0.0, 0.0, 0.0, 0.0)","$VNYMR,+153.393,+021.201,-107.721,-00.3838,-00.3205,-00.2525,+03.541,+09.089,+00.995,+00.233880,+00.255598,+00.359670*62
"
1698874269.859066,0,1698874269,816680431,GPS1_Frame,0,0,0,,-0.29333216010062513,-0.7445363347670314,0.5995629194829661,-0.012091139046364857,"(0.0, 0.0, 0.0, 0.0, 0.0, 0.0, 0.0, 0.0, 0.0)",0.16535,0.068447,0.441255,"(0.0, 0.0, 0.0, 0.0, 0.0, 0.0, 0.0, 0.0, 0.0)",3.77,8.774,1.386,"(0.0, 0.0, 0.0, 0.0, 0.0, 0.0, 0.0, 0.0, 0.0)",0,0,0,,-3.85e-05,-3.2500000000000004e-05,-2.5500000000000003e-05,"(0.0, 0.0, 0.0, 0.0, 0.0, 0.0, 0.0, 0.0, 0.0)","$VNYMR,+152.967,+021.700,-107.588,-00.3850,-00.3250,-00.2550,+03.770,+08.774,+01.386,+00.165350,+00.068447,+00.441255*62
"
1698874269.8590734,0,1698874269,832695007,GPS1_Frame,0,0,0,,-0.29674171988805786,-0.7419121936077285,0.6010765910580324,-0.014750604601190903,"(0.0, 0.0, 0.0, 0.0, 0.0, 0.0, 0.0, 0.0, 0.0)",0.157925,-0.080546,0.356183,"(0.0, 0.0, 0.0, 0.0, 0.0, 0.0, 0.0, 0.0, 0.0)",3.792,8.504,1.182,"(0.0, 0.0, 0.0, 0.0, 0.0, 0.0, 0.0, 0.0, 0.0)",0,0,0,,-3.878e-05,-3.101e-05,-2.5530000000000005e-05,"(0.0, 0.0, 0.0, 0.0, 0.0, 0.0, 0.0, 0.0, 0.0)","$VNYMR,+152.834,+022.248,-107.413,-00.3878,-00.3101,-00.2553,+03.792,+08.504,+01.182,+00.157925,-00.080546,+00.356183*6D
"
1698874269.9028127,0,1698874269,856551408,GPS1_Frame,0,0,0,,-0.29862645407593225,-0.7394751301548741,0.6030650685696791,-0.017643578988274233,"(0.0, 0.0, 0.0, 0.0, 0.0, 0.0, 0.0, 0.0, 0.0)",0.172571,-0.15823,0.272572,"(0.0, 0.0, 0.0, 0.0, 0.0, 0.0, 0.0, 0.0, 0.0)",3.755,8.566,0.89,"(0.0, 0.0, 0.0, 0.0, 0.0, 0.0, 0.0, 0.0, 0.0)",0,0,0,,-3.9000000000000006e-05,-3.146e-05,-2.527e-05,"(0.0, 0.0, 0.0, 0.0, 0.0, 0.0, 0.0, 0.0, 0.0)","$VNYMR,+152.887,+022.723,-107.151,-00.3900,-00.3146,-00.2527,+03.755,+08.566,+00.890,+00.172571,-00.158230,+00.272572*61
"
1698874269.9028227,0,1698874269,888877868,GPS1_Frame,0,0,0,,-0.2997681723420035,-0.7371929307725079,0.6051987195446565,-0.020497207889937114,"(0.0, 0.0, 0.0, 0.0, 0.0, 0.0, 0.0, 0.0, 0.0)",0.17851,-0.153537,0.253867,"(0.0, 0.0, 0.0, 0.0, 0.0, 0.0, 0.0, 0.0, 0.0)",3.795,8.645,0.563,"(0.0, 0.0, 0.0, 0.0, 0.0, 0.0, 0.0, 0.0, 0.0)",0,0,0,,-3.888e-05,-3.066e-05,-2.5030000000000003e-05,"(0.0, 0.0, 0.0, 0.0, 0.0, 0.0, 0.0, 0.0, 0.0)","$VNYMR,+153.020,+023.145,-106.856,-00.3888,-00.3066,-00.2503,+03.795,+08.645,+00.563,+00.178510,-00.153537,+00.253867*6A
"
1698874269.9468868,0,1698874269,908776760,GPS1_Frame,0,0,0,,-0.30069991040186844,-0.7351692563696405,0.6070892913521748,-0.023416248605030138,"(0.0, 0.0, 0.0, 0.0, 0.0, 0.0, 0.0, 0.0, 0.0)",0.106999,-0.178782,0.208424,"(0.0, 0.0, 0.0, 0.0, 0.0, 0.0, 0.0, 0.0, 0.0)",3.814,8.377,0.285,"(0.0, 0.0, 0.0, 0.0, 0.0, 0.0, 0.0, 0.0, 0.0)",0,0,0,,-3.943e-05,-3.156e-05,-2.478e-05,"(0.0, 0.0, 0.0, 0.0, 0.0, 0.0, 0.0, 0.0, 0.0)","$VNYMR,+153.174,+023.549,-106.593,-00.3943,-00.3156,-00.2478,+03.814,+08.377,+00.285,+00.106999,-00.178782,+00.208424*66
"
1698874269.9468942,0,1698874269,931555986,GPS1_Frame,0,0,0,,-0.30107388429844417,-0.73384119093198,0.608444260746472,-0.0250440461918513,"(0.0, 0.0, 0.0, 0.0, 0.0, 0.0, 0.0, 0.0, 0.0)",0.087246,-0.071506,0.077519,"(0.0, 0.0, 0.0, 0.0, 0.0, 0.0, 0.0, 0.0, 0.0)",3.485,8.541,0.016,"(0.0, 0.0, 0.0, 0.0, 0.0, 0.0, 0.0, 0.0, 0.0)",0,0,0,,-3.963e-05,-3.1440000000000004e-05,-2.491e-05,"(0.0, 0.0, 0.0, 0.0, 0.0, 0.0, 0.0, 0.0, 0.0)","$VNYMR,+153.285,+023.774,-106.397,-00.3963,-00.3144,-00.2491,+03.485,+08.541,+00.016,+00.087246,-00.071506,+00.077519*6E
"
1698874269.9907756,0,1698874269,959324598,GPS1_Frame,0,0,0,,-0.30124271263534924,-0.7332604993556397,0.6090728296672129,-0.024741793184574756,"(0.0, 0.0, 0.0, 0.0, 0.0, 0.0, 0.0, 0.0, 0.0)",0.071533,0.086001,-0.014282,"(0.0, 0.0, 0.0, 0.0, 0.0, 0.0, 0.0, 0.0, 0.0)",2.778,9.33,0.011,"(0.0, 0.0, 0.0, 0.0, 0.0, 0.0, 0.0, 0.0, 0.0)",0,0,0,,-3.942e-05,-3.111e-05,-2.466e-05,"(0.0, 0.0, 0.0, 0.0, 0.0, 0.0, 0.0, 0.0, 0.0)","$VNYMR,+153.267,+023.781,-106.300,-00.3942,-00.3111,-00.2466,+02.778,+09.330,+00.011,+00.071533,+00.086001,-00.014282*6D
"
1698874269.9954474,0,1698874269,984578132,GPS1_Frame,0,0,0,,-0.3031208961336901,-0.7323652042963334,0.6092846708464098,-0.023046035118437863,"(0.0, 0.0, 0.0, 0.0, 0.0, 0.0, 0.0, 0.0, 0.0)",0.121391,0.216775,0.103675,"(0.0, 0.0, 0.0, 0.0, 0.0, 0.0, 0.0, 0.0, 0.0)",2.398,9.851,0.513,"(0.0, 0.0, 0.0, 0.0, 0.0, 0.0, 0.0, 0.0, 0.0)",0,0,0,,-3.932e-05,-3.157e-05,-2.4770000000000002e-05,"(0.0, 0.0, 0.0, 0.0, 0.0, 0.0, 0.0, 0.0, 0.0)","$VNYMR,+152.969,+023.774,-106.276,-00.3932,-00.3157,-00.2477,+02.398,+09.851,+00.513,+00.121391,+00.216775,+00.103675*6F
"
1698874270.0453496,0,1698874270,17462968,GPS1_Frame,0,0,0,,-0.3053411147189394,-0.730974383773223,0.609825640322962,-0.023578429426951014,"(0.0, 0.0, 0.0, 0.0, 0.0, 0.0, 0.0, 0.0, 0.0)",0.047271,-0.097898,0.27833,"(0.0, 0.0, 0.0, 0.0, 0.0, 0.0, 0.0, 0.0, 0.0)",2.772,10.06,0.841,"(0.0, 0.0, 0.0, 0.0, 0.0, 0.0, 0.0, 0.0, 0.0)",0,0,0,,-3.974e-05,-3.133000000000001e-05,-2.491e-05,"(0.0, 0.0, 0.0, 0.0, 0.0, 0.0, 0.0, 0.0, 0.0)","$VNYMR,+152.794,+024.009,-106.217,-00.3974,-00.3133,-00.2491,+02.772,+10.060,+00.841,+00.047271,-00.097898,+00.278330*6A
"
1698874270.0868301,0,1698874270,35160303,GPS1_Frame,0,0,0,,-0.3059953426432349,-0.729842617597854,0.6105548061379276,-0.030322145709692744,"(0.0, 0.0, 0.0, 0.0, 0.0, 0.0, 0.0, 0.0, 0.0)",-0.125182,-0.51194,0.420747,"(0.0, 0.0, 0.0, 0.0, 0.0, 0.0, 0.0, 0.0, 0.0)",3.303,9.192,0.009,"(0.0, 0.0, 0.0, 0.0, 0.0, 0.0, 0.0, 0.0, 0.0)",0,0,0,,-3.964e-05,-3.156e-05,-2.44e-05,"(0.0, 0.0, 0.0, 0.0, 0.0, 0.0, 0.0, 0.0, 0.0)","$VNYMR,+153.199,+024.703,-106.144,-00.3964,-00.3156,-00.2440,+03.303,+09.192,+00.009,-00.125182,-00.511940,+00.420747*69
"
1698874270.0868378,0,1698874270,56704044,GPS1_Frame,0,0,0,,-0.30570031282975163,-0.7293809713836642,0.6107963078339967,-0.0384524076693763,"(0.0, 0.0, 0.0, 0.0, 0.0, 0.0, 0.0, 0.0, 0.0)",-0.192721,-0.422009,0.385133,"(0.0, 0.0, 0.0, 0.0, 0.0, 0.0, 0.0, 0.0, 0.0)",3.865,8.767,-0.894,"(0.0, 0.0, 0.0, 0.0, 0.0, 0.0, 0.0, 0.0, 0.0)",0,0,0,,-4.0350000000000005e-05,-3.051e-05,-2.4820000000000003e-05,"(0.0, 0.0, 0.0, 0.0, 0.0, 0.0, 0.0, 0.0, 0.0)","$VNYMR,+153.781,+025.438,-106.131,-00.4035,-00.3051,-00.2482,+03.865,+08.767,-00.894,-00.192721,-00.422009,+00.385133*6B
"
1698874270.1306658,0,1698874270,84486246,GPS1_Frame,0,0,0,,-0.3082944833751872,-0.7291835197922967,0.6093836808829765,-0.043559562179370154,"(0.0, 0.0, 0.0, 0.0, 0.0, 0.0, 0.0, 0.0, 0.0)",-0.187922,0.094501,0.431151,"(0.0, 0.0, 0.0, 0.0, 0.0, 0.0, 0.0, 0.0, 0.0)",4.628,8.186,-1.018,"(0.0, 0.0, 0.0, 0.0, 0.0, 0.0, 0.0, 0.0, 0.0)",0,0,0,,-4.034e-05,-2.994e-05,-2.4440000000000003e-05,"(0.0, 0.0, 0.0, 0.0, 0.0, 0.0, 0.0, 0.0, 0.0)","$VNYMR,+153.808,+026.057,-106.391,-00.4034,-00.2994,-00.2444,+04.628,+08.186,-01.018,-00.187922,+00.094501,+00.431151*6A
"
1698874270.1307454,0,1698874270,115353345,GPS1_Frame,0,0,0,,-0.3158204590268669,-0.7288139391970498,0.6060646359094306,-0.04211100559363837,"(0.0, 0.0, 0.0, 0.0, 0.0, 0.0, 0.0, 0.0, 0.0)",-0.072397,0.803975,0.313051,"(0.0, 0.0, 0.0, 0.0, 0.0, 0.0, 0.0, 0.0, 0.0)",5.233,7.162,0.195,"(0.0, 0.0, 0.0, 0.0, 0.0, 0.0, 0.0, 0.0, 0.0)",0,0,0,,-4.066e-05,-2.9930000000000003e-05,-2.433e-05,"(0.0, 0.0, 0.0, 0.0, 0.0, 0.0, 0.0, 0.0, 0.0)","$VNYMR,+152.816,+026.372,-106.992,-00.4066,-00.2993,-00.2433,+05.233,+07.162,+00.195,-00.072397,+00.803975,+00.313051*60
"
1698874270.174767,0,1698874270,133595705,GPS1_Frame,0,0,0,,-0.325273034693658,-0.7286216390465641,0.601821022778307,-0.03345768306905672,"(0.0, 0.0, 0.0, 0.0, 0.0, 0.0, 0.0, 0.0, 0.0)",0.06773,1.173324,0.009648,"(0.0, 0.0, 0.0, 0.0, 0.0, 0.0, 0.0, 0.0, 0.0)",5.314,6.748,2.116,"(0.0, 0.0, 0.0, 0.0, 0.0, 0.0, 0.0, 0.0, 0.0)",0,0,0,,-4.076e-05,-3.016e-05,-2.496e-05,"(0.0, 0.0, 0.0, 0.0, 0.0, 0.0, 0.0, 0.0, 0.0)","$VNYMR,+151.114,+026.121,-107.727,-00.4076,-00.3016,-00.2496,+05.314,+06.748,+02.116,+00.067730,+01.173324,+00.009648*68
"
1698874270.1747794,0,1698874270,162508249,GPS1_Frame,0,0,0,,-0.3306096925332066,-0.729128115034759,0.5988387159672457,-0.021485235108288675,"(0.0, 0.0, 0.0, 0.0, 0.0, 0.0, 0.0, 0.0, 0.0)",0.138646,0.824951,-0.452669,"(0.0, 0.0, 0.0, 0.0, 0.0, 0.0, 0.0, 0.0, 0.0)",4.636,7.43,3.638,"(0.0, 0.0, 0.0, 0.0, 0.0, 0.0, 0.0, 0.0, 0.0)",0,0,0,,-4.0350000000000005e-05,-3.063e-05,-2.621e-05,"(0.0, 0.0, 0.0, 0.0, 0.0, 0.0, 0.0, 0.0, 0.0)","$VNYMR,+149.683,+025.296,-108.165,-00.4035,-00.3063,-00.2621,+04.636,+07.430,+03.638,+00.138646,+00.824951,-00.452669*65
"
1698874270.2189705,0,1698874270,189001798,GPS1_Frame,0,0,0,,-0.32728802912912147,-0.7310434952457388,0.5985455386471605,-0.014184224097537945,"(0.0, 0.0, 0.0, 0.0, 0.0, 0.0, 0.0, 0.0, 0.0)",0.048124,-0.099045,-0.662642,"(0.0, 0.0, 0.0, 0.0, 0.0, 0.0, 0.0, 0.0, 0.0)",3.421,8.952,3.444,"(0.0, 0.0, 0.0, 0.0, 0.0, 0.0, 0.0, 0.0, 0.0)",0,0,0,,-4.0130000000000004e-05,-3.0290000000000003e-05,-2.57e-05,"(0.0, 0.0, 0.0, 0.0, 0.0, 0.0, 0.0, 0.0, 0.0)","$VNYMR,+149.558,+024.364,-108.105,-00.4013,-00.3029,-00.2570,+03.421,+08.952,+03.444,+00.048124,-00.099045,-00.662642*63
"
1698874270.2189877,0,1698874270,209208488,GPS1_Frame,0,0,0,,-0.3172148080213618,-0.7333788795736279,0.6010785294261478,-0.015322729202083413,"(0.0, 0.0, 0.0, 0.0, 0.0, 0.0, 0.0, 0.0, 0.0)",-0.02837,-0.901442,-0.48292,"(0.0, 0.0, 0.0, 0.0, 0.0, 0.0, 0.0, 0.0, 0.0)",2.715,10.671,1.724,"(0.0, 0.0, 0.0, 0.0, 0.0, 0.0, 0.0, 0.0, 0.0)",0,0,0,,-3.9620000000000004e-05,-3.099e-05,-2.542e-05,"(0.0, 0.0, 0.0, 0.0, 0.0, 0.0, 0.0, 0.0, 0.0)","$VNYMR,+150.761,+023.817,-107.621,-00.3962,-00.3099,-00.2542,+02.715,+10.671,+01.724,-00.028370,-00.901442,-00.482920*6D
"
1698874270.2624087,0,1698874270,233175516,GPS1_Frame,0,0,0,,-0.3070908767141485,-0.7345694247546886,0.604593310260049,-0.023872219069407535,"(0.0, 0.0, 0.0, 0.0, 0.0, 0.0, 0.0, 0.0, 0.0)",-0.106487,-1.079213,-0.060214,"(0.0, 0.0, 0.0, 0.0, 0.0, 0.0, 0.0, 0.0, 0.0)",2.681,10.713,-0.43,"(0.0, 0.0, 0.0, 0.0, 0.0, 0.0, 0.0, 0.0, 0.0)",0,0,0,,-3.963e-05,-3.121e-05,-2.453e-05,"(0.0, 0.0, 0.0, 0.0, 0.0, 0.0, 0.0, 0.0, 0.0)","$VNYMR,+152.472,+023.979,-107.043,-00.3963,-00.3121,-00.2453,+02.681,+10.713,-00.430,-00.106487,-01.079213,-00.060214*6C
"
1698874270.270406,0,1698874270,258169651,GPS1_Frame,0,0,0,,-0.3012566730488848,-0.7347281886387981,0.6069501269002143,-0.032100610880194225,"(0.0, 0.0, 0.0, 0.0, 0.0, 0.0, 0.0, 0.0, 0.0)",-0.071389,-0.59474,0.087991,"(0.0, 0.0, 0.0, 0.0, 0.0, 0.0, 0.0, 0.0, 0.0)",2.913,10.047,-1.493,"(0.0, 0.0, 0.0, 0.0, 0.0, 0.0, 0.0, 0.0, 0.0)",0,0,0,,-3.963e-05,-3.133000000000001e-05,-2.44e-05,"(0.0, 0.0, 0.0, 0.0, 0.0, 0.0, 0.0, 0.0, 0.0)","$VNYMR,+153.688,+024.385,-106.663,-00.3963,-00.3133,-00.2440,+02.913,+10.047,-01.493,-00.071389,-00.594740,+00.087991*6F
"
1698874270.3192744,0,1698874270,283362388,GPS1_Frame,0,0,0,,-0.3008418854830262,-0.7344215143306698,0.6073812236720396,-0.03474547967606037,"(0.0, 0.0, 0.0, 0.0, 0.0, 0.0, 0.0, 0.0, 0.0)",0.011328,0.079458,0.120576,"(0.0, 0.0, 0.0, 0.0, 0.0, 0.0, 0.0, 0.0, 0.0)",3.146,9.764,-1.24,"(0.0, 0.0, 0.0, 0.0, 0.0, 0.0, 0.0, 0.0, 0.0)",0,0,0,,-3.9620000000000004e-05,-3.087e-05,-2.4540000000000002e-05,"(0.0, 0.0, 0.0, 0.0, 0.0, 0.0, 0.0, 0.0, 0.0)","$VNYMR,+153.920,+024.613,-106.602,-00.3962,-00.3087,-00.2454,+03.146,+09.764,-01.240,+00.011328,+00.079458,+00.120576*62
"
1698874270.363136,0,1698874270,314961433,GPS1_Frame,0,0,0,,-0.3047777468002347,-0.733593789271732,0.6065160764328499,-0.032998885220795304,"(0.0, 0.0, 0.0, 0.0, 0.0, 0.0, 0.0, 0.0, 0.0)",0.031883,0.395667,0.204603,"(0.0, 0.0, 0.0, 0.0, 0.0, 0.0, 0.0, 0.0, 0.0)",3.563,9.39,-0.062,"(0.0, 0.0, 0.0, 0.0, 0.0, 0.0, 0.0, 0.0, 0.0)",0,0,0,,-3.9850000000000006e-05,-3.1440000000000004e-05,-2.4160000000000002e-05,"(0.0, 0.0, 0.0, 0.0, 0.0, 0.0, 0.0, 0.0, 0.0)","$VNYMR,+153.372,+024.716,-106.770,-00.3985,-00.3144,-00.2416,+03.563,+09.390,-00.062,+00.031883,+00.395667,+00.204603*62
"
1698874270.3631508,0,1698874270,337032794,GPS1_Frame,0,0,0,,-0.30929371900253816,-0.733130917843657,0.6048993863787501,-0.03087369504784479,"(0.0, 0.0, 0.0, 0.0, 0.0, 0.0, 0.0, 0.0, 0.0)",-0.055425,0.335051,0.154154,"(0.0, 0.0, 0.0, 0.0, 0.0, 0.0, 0.0, 0.0, 0.0)",3.834,8.978,0.894,"(0.0, 0.0, 0.0, 0.0, 0.0, 0.0, 0.0, 0.0, 0.0)",0,0,0,,-3.961e-05,-3.053e-05,-2.5050000000000002e-05,"(0.0, 0.0, 0.0, 0.0, 0.0, 0.0, 0.0, 0.0, 0.0)","$VNYMR,+152.714,+024.800,-107.058,-00.3961,-00.3053,-00.2505,+03.834,+08.978,+00.894,-00.055425,+00.335051,+00.154154*66
"
1698874270.406343,0,1698874270,363295316,GPS1_Frame,0,0,0,,-0.31231200874002585,-0.7335113897745579,0.6029255158930742,-0.030051165581998995,"(0.0, 0.0, 0.0, 0.0, 0.0, 0.0, 0.0, 0.0, 0.0)",-0.118935,0.192284,0.103209,"(0.0, 0.0, 0.0, 0.0, 0.0, 0.0, 0.0, 0.0, 0.0)",3.86,8.78,1.404,"(0.0, 0.0, 0.0, 0.0, 0.0, 0.0, 0.0, 0.0, 0.0)",0,0,0,,-3.993e-05,-3.041e-05,-2.506e-05,"(0.0, 0.0, 0.0, 0.0, 0.0, 0.0, 0.0, 0.0, 0.0)","$VNYMR,+152.284,+024.878,-107.391,-00.3993,-00.3041,-00.2506,+03.860,+08.780,+01.404,-00.118935,+00.192284,+00.103209*6A
"
1698874270.4063532,0,1698874270,384361505,GPS1_Frame,0,0,0,,-0.3138150226740881,-0.7340757064006994,0.6014451105255593,-0.030278174338515818,"(0.0, 0.0, 0.0, 0.0, 0.0, 0.0, 0.0, 0.0, 0.0)",-0.089238,0.050952,0.07054,"(0.0, 0.0, 0.0, 0.0, 0.0, 0.0, 0.0, 0.0, 0.0)",3.791,8.714,1.587,"(0.0, 0.0, 0.0, 0.0, 0.0, 0.0, 0.0, 0.0, 0.0)",0,0,0,,-4.0360000000000007e-05,-3.0969999999999997e-05,-2.519e-05,"(0.0, 0.0, 0.0, 0.0, 0.0, 0.0, 0.0, 0.0, 0.0)","$VNYMR,+152.095,+024.957,-107.637,-00.4036,-00.3097,-00.2519,+03.791,+08.714,+01.587,-00.089238,+00.050952,+00.070540*60
"
1698874270.450959,0,1698874270,407497406,GPS1_Frame,0,0,0,,-0.313904357899909,-0.7344135775432551,0.6009125193101538,-0.031700084351420216,"(0.0, 0.0, 0.0, 0.0, 0.0, 0.0, 0.0, 0.0, 0.0)",-0.099624,-0.161097,0.074524,"(0.0, 0.0, 0.0, 0.0, 0.0, 0.0, 0.0, 0.0, 0.0)",3.977,8.65,1.606,"(0.0, 0.0, 0.0, 0.0, 0.0, 0.0, 0.0, 0.0, 0.0)",0,0,0,,-4.015000000000001e-05,-3.086e-05,-2.506e-05,"(0.0, 0.0, 0.0, 0.0, 0.0, 0.0, 0.0, 0.0, 0.0)","$VNYMR,+152.161,+025.076,-107.728,-00.4015,-00.3086,-00.2506,+03.977,+08.650,+01.606,-00.099624,-00.161097,+00.074524*67
"
1698874270.4509656,0,1698874270,432718276,GPS1_Frame,0,0,0,,-0.31248175665249,-0.7349431915575776,0.6008261596750458,-0.0349511486602658,"(0.0, 0.0, 0.0, 0.0, 0.0, 0.0, 0.0, 0.0, 0.0)",-0.112941,-0.292935,0.051645,"(0.0, 0.0, 0.0, 0.0, 0.0, 0.0, 0.0, 0.0, 0.0)",4.049,8.412,1.082,"(0.0, 0.0, 0.0, 0.0, 0.0, 0.0, 0.0, 0.0, 0.0)",0,0,0,,-4.025e-05,-3.086e-05,-2.481e-05,"(0.0, 0.0, 0.0, 0.0, 0.0, 0.0, 0.0, 0.0, 0.0)","$VNYMR,+152.518,+025.269,-107.742,-00.4025,-00.3086,-00.2481,+04.049,+08.412,+01.082,-00.112941,-00.292935,+00.051645*6E
"
1698874270.4990957,0,1698874270,463216304,GPS1_Frame,0,0,0,,-0.3101330547155719,-0.7356969190218303,0.6009125326287488,-0.03836221896968012,"(0.0, 0.0, 0.0, 0.0, 0.0, 0.0, 0.0, 0.0, 0.0)",-0.131333,-0.294872,-0.036638,"(0.0, 0.0, 0.0, 0.0, 0.0, 0.0, 0.0, 0.0, 0.0)",4.003,8.038,0.604,"(0.0, 0.0, 0.0, 0.0, 0.0, 0.0, 0.0, 0.0, 0.0)",0,0,0,,-4.023e-05,-3.006e-05,-2.5450000000000002e-05,"(0.0, 0.0, 0.0, 0.0, 0.0, 0.0, 0.0, 0.0, 0.0)","$VNYMR,+152.988,+025.415,-107.717,-00.4023,-00.3006,-00.2545,+04.003,+08.038,+00.604,-00.131333,-00.294872,-00.036638*6D
"
1698874270.5048747,0,1698874270,485632419,GPS1_Frame,0,0,0,,-0.3074264123383356,-0.7369646699974479,0.600687714775158,-0.03932359966395199,"(0.0, 0.0, 0.0, 0.0, 0.0, 0.0, 0.0, 0.0, 0.0)",-0.087843,-0.089426,-0.204006,"(0.0, 0.0, 0.0, 0.0, 0.0, 0.0, 0.0, 0.0, 0.0)",3.726,8.305,0.46,"(0.0, 0.0, 0.0, 0.0, 0.0, 0.0, 0.0, 0.0, 0.0)",0,0,0,,-4.015000000000001e-05,-3.0969999999999997e-05,-2.493e-05,"(0.0, 0.0, 0.0, 0.0, 0.0, 0.0, 0.0, 0.0, 0.0)","$VNYMR,+153.325,+025.296,-107.725,-00.4015,-00.3097,-00.2493,+03.726,+08.305,+00.460,-00.087843,-00.089426,-00.204006*6B
"
1698874270.54673,0,1698874270,506953239,GPS1_Frame,0,0,0,,-0.30556297075918754,-0.7380579885830754,0.6003611349103652,-0.038316890253040525,"(0.0, 0.0, 0.0, 0.0, 0.0, 0.0, 0.0, 0.0, 0.0)",-0.046733,-0.003981,-0.163804,"(0.0, 0.0, 0.0, 0.0, 0.0, 0.0, 0.0, 0.0, 0.0)",3.629,8.499,0.758,"(0.0, 0.0, 0.0, 0.0, 0.0, 0.0, 0.0, 0.0, 0.0)",0,0,0,,-4.015000000000001e-05,-3.109e-05,-2.5180000000000003e-05,"(0.0, 0.0, 0.0, 0.0, 0.0, 0.0, 0.0, 0.0, 0.0)","$VNYMR,+153.442,+025.053,-107.751,-00.4015,-00.3109,-00.2518,+03.629,+08.499,+00.758,-00.046733,-00.003981,-00.163804*6A
"
1698874270.5467443,0,1698874270,533650875,GPS1_Frame,0,0,0,,-0.3035239901495788,-0.7390793719716827,0.6002309547090315,-0.03684657838532732,"(0.0, 0.0, 0.0, 0.0, 0.0, 0.0, 0.0, 0.0, 0.0)",-0.012392,0.002775,-0.276103,"(0.0, 0.0, 0.0, 0.0, 0.0, 0.0, 0.0, 0.0, 0.0)",3.251,8.58,0.868,"(0.0, 0.0, 0.0, 0.0, 0.0, 0.0, 0.0, 0.0, 0.0)",0,0,0,,-3.973e-05,-3.0980000000000005e-05,-2.5050000000000002e-05,"(0.0, 0.0, 0.0, 0.0, 0.0, 0.0, 0.0, 0.0, 0.0)","$VNYMR,+153.553,+024.761,-107.743,-00.3973,-00.3098,-00.2505,+03.251,+08.580,+00.868,-00.012392,+00.002775,-00.276103*6F
"
1698874270.593617,0,1698874270,561536312,GPS1_Frame,0,0,0,,-0.30119327311056837,-0.7400439146908947,0.6002847331820478,-0.035719121916363755,"(0.0, 0.0, 0.0, 0.0, 0.0, 0.0, 0.0, 0.0, 0.0)",-0.053486,-0.084976,-0.137233,"(0.0, 0.0, 0.0, 0.0, 0.0, 0.0, 0.0, 0.0, 0.0)",3.282,9.236,0.901,"(0.0, 0.0, 0.0, 0.0, 0.0, 0.0, 0.0, 0.0, 0.0)",0,0,0,,-3.9620000000000004e-05,-3.076e-05,-2.5169999999999998e-05,"(0.0, 0.0, 0.0, 0.0, 0.0, 0.0, 0.0, 0.0, 0.0)","$VNYMR,+153.722,+024.486,-107.705,-00.3962,-00.3076,-00.2517,+03.282,+09.236,+00.901,-00.053486,-00.084976,-00.137233*6F
"
1698874270.6013348,0,1698874270,588116884,GPS1_Frame,0,0,0,,-0.29989650187664396,-0.7404536658748171,0.6004196947292637,-0.03586986250203253,"(0.0, 0.0, 0.0, 0.0, 0.0, 0.0, 0.0, 0.0, 0.0)",0.008667,-0.057023,-0.045769,"(0.0, 0.0, 0.0, 0.0, 0.0, 0.0, 0.0, 0.0, 0.0)",3.337,8.907,0.967,"(0.0, 0.0, 0.0, 0.0, 0.0, 0.0, 0.0, 0.0, 0.0)",0,0,0,,-3.953e-05,-3.133000000000001e-05,-2.491e-05,"(0.0, 0.0, 0.0, 0.0, 0.0, 0.0, 0.0, 0.0, 0.0)","$VNYMR,+153.870,+024.409,-107.671,-00.3953,-00.3133,-00.2491,+03.337,+08.907,+00.967,+00.008667,-00.057023,-00.045769*64
"
1698874270.6473725,0,1698874270,612299203,GPS1_Frame,0,0,0,,-0.2991008998013004,-0.7403438777929162,0.6009552591973283,-0.03581020518891048,"(0.0, 0.0, 0.0, 0.0, 0.0, 0.0, 0.0, 0.0, 0.0)",0.060395,-0.03735,-0.054746,"(0.0, 0.0, 0.0, 0.0, 0.0, 0.0, 0.0, 0.0, 0.0)",3.414,8.782,1.155,"(0.0, 0.0, 0.0, 0.0, 0.0, 0.0, 0.0, 0.0, 0.0)",0,0,0,,-3.963e-05,-3.1100000000000004e-05,-2.466e-05,"(0.0, 0.0, 0.0, 0.0, 0.0, 0.0, 0.0, 0.0, 0.0)","$VNYMR,+153.965,+024.363,-107.580,-00.3963,-00.3110,-00.2466,+03.414,+08.782,+01.155,+00.060395,-00.037350,-00.054746*6A
"
1698874270.6948438,0,1698874270,633012771,GPS1_Frame,0,0,0,,-0.2984264379884664,-0.7395774738336419,0.6022391148276172,-0.03570532003795743,"(0.0, 0.0, 0.0, 0.0, 0.0, 0.0, 0.0, 0.0, 0.0)",0.132959,-0.09563,-0.006467,"(0.0, 0.0, 0.0, 0.0, 0.0, 0.0, 0.0, 0.0, 0.0)",3.666,8.832,1.444,"(0.0, 0.0, 0.0, 0.0, 0.0, 0.0, 0.0, 0.0, 0.0)",0,0,0,,-3.953e-05,-3.145e-05,-2.44e-05,"(0.0, 0.0, 0.0, 0.0, 0.0, 0.0, 0.0, 0.0, 0.0)","$VNYMR,+154.068,+024.347,-107.375,-00.3953,-00.3145,-00.2440,+03.666,+08.832,+01.444,+00.132959,-00.095630,-00.006467*62
"
1698874270.6948583,0,1698874270,658246040,GPS1_Frame,0,0,0,,-0.2970216085408046,-0.7384176296439786,0.6042553770475959,-0.037323017025270744,"(0.0, 0.0, 0.0, 0.0, 0.0, 0.0, 0.0, 0.0, 0.0)",0.120079,-0.29007,0.028241,"(0.0, 0.0, 0.0, 0.0, 0.0, 0.0, 0.0, 0.0, 0.0)",3.816,8.733,1.343,"(0.0, 0.0, 0.0, 0.0, 0.0, 0.0, 0.0, 0.0, 0.0)",0,0,0,,-3.952e-05,-3.099e-05,-2.4410000000000002e-05,"(0.0, 0.0, 0.0, 0.0, 0.0, 0.0, 0.0, 0.0, 0.0)","$VNYMR,+154.383,+024.461,-107.055,-00.3952,-00.3099,-00.2441,+03.816,+08.733,+01.343,+00.120079,-00.290070,+00.028241*64
"
1698874270.6948626,0,1698874270,681910514,GPS1_Frame,0,0,0,,-0.29455772869257274,-0.7372596590940457,0.6066804232158722,-0.040284036870879086,"(0.0, 0.0, 0.0, 0.0, 0.0, 0.0, 0.0, 0.0, 0.0)",0.109008,-0.396886,0.018739,"(0.0, 0.0, 0.0, 0.0, 0.0, 0.0, 0.0, 0.0, 0.0)",3.982,8.742,1.044,"(0.0, 0.0, 0.0, 0.0, 0.0, 0.0, 0.0, 0.0, 0.0)",0,0,0,,-3.963e-05,-3.1100000000000004e-05,-2.39e-05,"(0.0, 0.0, 0.0, 0.0, 0.0, 0.0, 0.0, 0.0, 0.0)","$VNYMR,+154.910,+024.633,-106.662,-00.3963,-00.3110,-00.2390,+03.982,+08.742,+01.044,+00.109008,-00.396886,+00.018739*67
"
1698874270.735285,0,1698874270,708228826,GPS1_Frame,0,0,0,,-0.2916125544768306,-0.7359948450007054,0.6094140614963619,-0.04345351371746063,"(0.0, 0.0, 0.0, 0.0, 0.0, 0.0, 0.0, 0.0, 0.0)",0.149259,-0.390872,-0.019814,"(0.0, 0.0, 0.0, 0.0, 0.0, 0.0, 0.0, 0.0, 0.0)",3.978,8.684,0.678,"(0.0, 0.0, 0.0, 0.0, 0.0, 0.0, 0.0, 0.0, 0.0)",0,0,0,,-3.974e-05,-3.1440000000000004e-05,-2.365e-05,"(0.0, 0.0, 0.0, 0.0, 0.0, 0.0, 0.0, 0.0, 0.0)","$VNYMR,+155.512,+024.796,-106.212,-00.3974,-00.3144,-00.2365,+03.978,+08.684,+00.678,+00.149259,-00.390872,-00.019814*66
"
1698874270.741174,0,1698874270,732386589,GPS1_Frame,0,0,0,,-0.2882441708621454,-0.7347143808918449,0.6123638573801305,-0.046049784464583146,"(0.0, 0.0, 0.0, 0.0, 0.0, 0.0, 0.0, 0.0, 0.0)",0.167227,-0.389816,-0.064383,"(0.0, 0.0, 0.0, 0.0, 0.0, 0.0, 0.0, 0.0, 0.0)",3.898,8.92,0.48,"(0.0, 0.0, 0.0, 0.0, 0.0, 0.0, 0.0, 0.0, 0.0)",0,0,0,,-3.964e-05,-3.1440000000000004e-05,-2.326e-05,"(0.0, 0.0, 0.0, 0.0, 0.0, 0.0, 0.0, 0.0, 0.0)","$VNYMR,+156.127,+024.878,-105.719,-00.3964,-00.3144,-00.2326,+03.898,+08.920,+00.480,+00.167227,-00.389816,-00.064383*68
"
1698874270.7824953,0,1698874270,758004903,GPS1_Frame,0,0,0,,-0.28459895814868164,-0.7335193133887643,0.6152628258179862,-0.049035753005610486,"(0.0, 0.0, 0.0, 0.0, 0.0, 0.0, 0.0, 0.0, 0.0)",0.132503,-0.443268,-0.056211,"(0.0, 0.0, 0.0, 0.0, 0.0, 0.0, 0.0, 0.0, 0.0)",3.981,8.964,0.24,"(0.0, 0.0, 0.0, 0.0, 0.0, 0.0, 0.0, 0.0, 0.0)",0,0,0,,-3.953e-05,-3.133000000000001e-05,-2.301e-05,"(0.0, 0.0, 0.0, 0.0, 0.0, 0.0, 0.0, 0.0, 0.0)","$VNYMR,+156.796,+024.970,-105.227,-00.3953,-00.3133,-00.2301,+03.981,+08.964,+00.240,+00.132503,-00.443268,-00.056211*6F
"
1698874270.8340566,0,1698874270,782929658,GPS1_Frame,0,0,0,,-0.28036401586071535,-0.7327131915165558,0.6179066755513107,-0.05214151797946226,"(0.0, 0.0, 0.0, 0.0, 0.0, 0.0, 0.0, 0.0, 0.0)",0.094014,-0.446517,-0.104584,"(0.0, 0.0, 0.0, 0.0, 0.0, 0.0, 0.0, 0.0, 0.0)",4.015,9.086,-0.1,"(0.0, 0.0, 0.0, 0.0, 0.0, 0.0, 0.0, 0.0, 0.0)",0,0,0,,-3.954e-05,-3.145e-05,-2.224e-05,"(0.0, 0.0, 0.0, 0.0, 0.0, 0.0, 0.0, 0.0, 0.0)","$VNYMR,+157.525,+025.017,-104.765,-00.3954,-00.3145,-00.2224,+04.015,+09.086,-00.100,+00.094014,-00.446517,-00.104584*60
"
1698874270.834058,0,1698874270,806738138,GPS1_Frame,0,0,0,,-0.2765047055974972,-0.7321767016904098,0.6200842040704188,-0.054387545877246105,"(0.0, 0.0, 0.0, 0.0, 0.0, 0.0, 0.0, 0.0, 0.0)",0.095556,-0.304473,-0.124153,"(0.0, 0.0, 0.0, 0.0, 0.0, 0.0, 0.0, 0.0, 0.0)",3.833,9.179,-0.304,"(0.0, 0.0, 0.0, 0.0, 0.0, 0.0, 0.0, 0.0, 0.0)",0,0,0,,-3.944e-05,-3.1790000000000006e-05,-2.198e-05,"(0.0, 0.0, 0.0, 0.0, 0.0, 0.0, 0.0, 0.0, 0.0)","$VNYMR,+158.141,+024.996,-104.379,-00.3944,-00.3179,-00.2198,+03.833,+09.179,-00.304,+00.095556,-00.304473,-00.124153*6B
"
1698874270.8787403,0,1698874270,834771394,GPS1_Frame,0,0,0,,-0.2736510501722224,-0.7314762429011611,0.6221427027586214,-0.05473633359149503,"(0.0, 0.0, 0.0, 0.0, 0.0, 0.0, 0.0, 0.0, 0.0)",0.154775,-0.166269,-0.132818,"(0.0, 0.0, 0.0, 0.0, 0.0, 0.0, 0.0, 0.0, 0.0)",3.803,9.665,-0.077,"(0.0, 0.0, 0.0, 0.0, 0.0, 0.0, 0.0, 0.0, 0.0)",0,0,0,,-3.944e-05,-3.191e-05,-2.2620000000000004e-05,"(0.0, 0.0, 0.0, 0.0, 0.0, 0.0, 0.0, 0.0, 0.0)","$VNYMR,+158.519,+024.871,-104.026,-00.3944,-00.3191,-00.2262,+03.803,+09.665,-00.077,+00.154775,-00.166269,-00.132818*68
"
1698874270.8787498,0,1698874270,857155323,GPS1_Frame,0,0,0,,-0.2717147529516136,-0.7304352944133271,0.6241820140524243,-0.055065297939979815,"(0.0, 0.0, 0.0, 0.0, 0.0, 0.0, 0.0, 0.0, 0.0)",0.146927,-0.181375,-0.048518,"(0.0, 0.0, 0.0, 0.0, 0.0, 0.0, 0.0, 0.0, 0.0)",3.698,9.834,0.18,"(0.0, 0.0, 0.0, 0.0, 0.0, 0.0, 0.0, 0.0, 0.0)",0,0,0,,-3.922e-05,-3.134e-05,-2.224e-05,"(0.0, 0.0, 0.0, 0.0, 0.0, 0.0, 0.0, 0.0, 0.0)","$VNYMR,+158.803,+024.812,-103.684,-00.3922,-00.3134,-00.2224,+03.698,+09.834,+00.180,+00.146927,-00.181375,-00.048518*68
"
1698874270.9185822,0,1698874270,882157087,GPS1_Frame,0,0,0,,-0.2700026891983012,-0.7291254771614706,0.6262695410245394,-0.05710558960956748,"(0.0, 0.0, 0.0, 0.0, 0.0, 0.0, 0.0, 0.0, 0.0)",0.108169,-0.323252,0.074075,"(0.0, 0.0, 0.0, 0.0, 0.0, 0.0, 0.0, 0.0, 0.0)",3.816,9.82,0.124,"(0.0, 0.0, 0.0, 0.0, 0.0, 0.0, 0.0, 0.0, 0.0)",0,0,0,,-3.922e-05,-3.145e-05,-2.1470000000000003e-05,"(0.0, 0.0, 0.0, 0.0, 0.0, 0.0, 0.0, 0.0, 0.0)","$VNYMR,+159.188,+024.927,-103.328,-00.3922,-00.3145,-00.2147,+03.816,+09.820,+00.124,+00.108169,-00.323252,+00.074075*65
"
1698874270.9231894,0,1698874270,914290904,GPS1_Frame,0,0,0,,-0.26813751699198207,-0.7275838193364248,0.6284915453891133,-0.061011762764235644,"(0.0, 0.0, 0.0, 0.0, 0.0, 0.0, 0.0, 0.0, 0.0)",0.110498,-0.406885,0.131121,"(0.0, 0.0, 0.0, 0.0, 0.0, 0.0, 0.0, 0.0, 0.0)",3.963,9.552,-0.027,"(0.0, 0.0, 0.0, 0.0, 0.0, 0.0, 0.0, 0.0, 0.0)",0,0,0,,-3.912e-05,-3.146e-05,-2.1340000000000002e-05,"(0.0, 0.0, 0.0, 0.0, 0.0, 0.0, 0.0, 0.0, 0.0)","$VNYMR,+159.728,+025.203,-102.936,-00.3912,-00.3146,-00.2134,+03.963,+09.552,-00.027,+00.110498,-00.406885,+00.131121*68
"
1698874270.9688942,0,1698874270,934856653,GPS1_Frame,0,0,0,,-0.26602483554713086,-0.7259098623171474,0.6308617685048077,-0.06556742866552596,"(0.0, 0.0, 0.0, 0.0, 0.0, 0.0, 0.0, 0.0, 0.0)",0.114169,-0.430967,0.147276,"(0.0, 0.0, 0.0, 0.0, 0.0, 0.0, 0.0, 0.0, 0.0)",4.163,9.545,-0.381,"(0.0, 0.0, 0.0, 0.0, 0.0, 0.0, 0.0, 0.0, 0.0)",0,0,0,,-3.9340000000000006e-05,-3.168e-05,-2.033e-05,"(0.0, 0.0, 0.0, 0.0, 0.0, 0.0, 0.0, 0.0, 0.0)","$VNYMR,+160.348,+025.521,-102.507,-00.3934,-00.3168,-00.2033,+04.163,+09.545,-00.381,+00.114169,-00.430967,+00.147276*66
"
1698874271.011747,0,1698874270,957237482,GPS1_Frame,0,0,0,,-0.26472741822999285,-0.7237927288322143,0.6332827402648016,-0.07068557568275761,"(0.0, 0.0, 0.0, 0.0, 0.0, 0.0, 0.0, 0.0, 0.0)",0.148231,-0.423227,0.246907,"(0.0, 0.0, 0.0, 0.0, 0.0, 0.0, 0.0, 0.0, 0.0)",4.443,9.156,-0.613,"(0.0, 0.0, 0.0, 0.0, 0.0, 0.0, 0.0, 0.0, 0.0)",0,0,0,,-3.913e-05,-3.168e-05,-1.995e-05,"(0.0, 0.0, 0.0, 0.0, 0.0, 0.0, 0.0, 0.0, 0.0)","$VNYMR,+160.936,+025.952,-102.063,-00.3913,-00.3168,-00.1995,+04.443,+09.156,-00.613,+00.148231,-00.423227,+00.246907*63
"
1698874271.0117548,0,1698874270,984110355,GPS1_Frame,0,0,0,,-0.26304927508875386,-0.7215522724871665,0.6358035489640353,-0.07694962032800687,"(0.0, 0.0, 0.0, 0.0, 0.0, 0.0, 0.0, 0.0, 0.0)",0.078218,-0.583727,0.242295,"(0.0, 0.0, 0.0, 0.0, 0.0, 0.0, 0.0, 0.0, 0.0)",4.902,8.656,-1.021,"(0.0, 0.0, 0.0, 0.0, 0.0, 0.0, 0.0, 0.0, 0.0)",0,0,0,,-3.943e-05,-3.122e-05,-2.0340000000000002e-05,"(0.0, 0.0, 0.0, 0.0, 0.0, 0.0, 0.0, 0.0, 0.0)","$VNYMR,+161.656,+026.458,-101.577,-00.3943,-00.3122,-00.2034,+04.902,+08.656,-01.021,+00.078218,-00.583727,+00.242295*6D
"
1698874271.0545611,0,1698874271,11443376,GPS1_Frame,0,0,0,,-0.25974691123391924,-0.7200491915139811,0.6379244155013067,-0.08433945702823217,"(0.0, 0.0, 0.0, 0.0, 0.0, 0.0, 0.0, 0.0, 0.0)",-0.017005,-0.667725,0.171471,"(0.0, 0.0, 0.0, 0.0, 0.0, 0.0, 0.0, 0.0, 0.0)",5.036,8.289,-1.783,"(0.0, 0.0, 0.0, 0.0, 0.0, 0.0, 0.0, 0.0, 0.0)",0,0,0,,-3.954e-05,-3.122e-05,-1.946e-05,"(0.0, 0.0, 0.0, 0.0, 0.0, 0.0, 0.0, 0.0, 0.0)","$VNYMR,+162.611,+026.927,-101.115,-00.3954,-00.3122,-00.1946,+05.036,+08.289,-01.783,-00.017005,-00.667725,+00.171471*62
"
1698874271.0548387,0,1698874271,31918525,GPS1_Frame,0,0,0,,-0.25581088955828657,-0.7194886265386986,0.6392945215243887,-0.09055064778209972,"(0.0, 0.0, 0.0, 0.0, 0.0, 0.0, 0.0, 0.0, 0.0)",-0.06784,-0.498867,0.045709,"(0.0, 0.0, 0.0, 0.0, 0.0, 0.0, 0.0, 0.0, 0.0)",5.01,8.291,-2.521,"(0.0, 0.0, 0.0, 0.0, 0.0, 0.0, 0.0, 0.0, 0.0)",0,0,0,,-3.965e-05,-3.133000000000001e-05,-1.908e-05,"(0.0, 0.0, 0.0, 0.0, 0.0, 0.0, 0.0, 0.0, 0.0)","$VNYMR,+163.516,+027.218,-100.772,-00.3965,-00.3133,-00.1908,+05.010,+08.291,-02.521,-00.067840,-00.498867,+00.045709*64
"
1698874271.0983913,0,1698874271,56760787,GPS1_Frame,0,0,0,,-0.25344657360886463,-0.7197581025715467,0.6395694939219375,-0.09308045204536779,"(0.0, 0.0, 0.0, 0.0, 0.0, 0.0, 0.0, 0.0, 0.0)",-0.073699,-0.109031,-0.056814,"(0.0, 0.0, 0.0, 0.0, 0.0, 0.0, 0.0, 0.0, 0.0)",4.696,8.321,-2.737,"(0.0, 0.0, 0.0, 0.0, 0.0, 0.0, 0.0, 0.0, 0.0)",0,0,0,,-3.9200000000000004e-05,-3.031e-05,-1.946e-05,"(0.0, 0.0, 0.0, 0.0, 0.0, 0.0, 0.0, 0.0, 0.0)","$VNYMR,+163.948,+027.270,-100.670,-00.3920,-00.3031,-00.1946,+04.696,+08.321,-02.737,-00.073699,-00.109031,-00.056814*6E
"
1698874271.098398,0,1698874271,84766864,GPS1_Frame,0,0,0,,-0.2535218840280468,-0.7207578246108912,0.6386965516174908,-0.09111271883206769,"(0.0, 0.0, 0.0, 0.0, 0.0, 0.0, 0.0, 0.0, 0.0)",-0.039148,0.328048,-0.160722,"(0.0, 0.0, 0.0, 0.0, 0.0, 0.0, 0.0, 0.0, 0.0)",4.249,8.496,-2.4,"(0.0, 0.0, 0.0, 0.0, 0.0, 0.0, 0.0, 0.0, 0.0)",0,0,0,,-3.953e-05,-3.076e-05,-1.921e-05,"(0.0, 0.0, 0.0, 0.0, 0.0, 0.0, 0.0, 0.0, 0.0)","$VNYMR,+163.756,+027.077,-100.845,-00.3953,-00.3076,-00.1921,+04.249,+08.496,-02.400,-00.039148,+00.328048,-00.160722*6C
"
1698874271.1540406,0,1698874271,111799001,GPS1_Frame,0,0,0,,-0.2559764773700517,-0.7221776340656823,0.6369640835658605,-0.08492505010664556,"(0.0, 0.0, 0.0, 0.0, 0.0, 0.0, 0.0, 0.0, 0.0)",-0.037946,0.634227,-0.194722,"(0.0, 0.0, 0.0, 0.0, 0.0, 0.0, 0.0, 0.0, 0.0)",3.749,9.015,-1.494,"(0.0, 0.0, 0.0, 0.0, 0.0, 0.0, 0.0, 0.0, 0.0)",0,0,0,,-3.922e-05,-3.122e-05,-1.983e-05,"(0.0, 0.0, 0.0, 0.0, 0.0, 0.0, 0.0, 0.0, 0.0)","$VNYMR,+162.983,+026.664,-101.236,-00.3922,-00.3122,-00.1983,+03.749,+09.015,-01.494,-00.037946,+00.634227,-00.194722*6D
"
1698874271.1540642,0,1698874271,135790109,GPS1_Frame,0,0,0,,-0.26034450231617307,-0.7234414728980094,0.6347626932468099,-0.07700323802905291,"(0.0, 0.0, 0.0, 0.0, 0.0, 0.0, 0.0, 0.0, 0.0)",0.009328,0.766381,-0.134374,"(0.0, 0.0, 0.0, 0.0, 0.0, 0.0, 0.0, 0.0, 0.0)",3.394,9.297,-0.304,"(0.0, 0.0, 0.0, 0.0, 0.0, 0.0, 0.0, 0.0, 0.0)",0,0,0,,-3.963e-05,-3.087e-05,-2.035e-05,"(0.0, 0.0, 0.0, 0.0, 0.0, 0.0, 0.0, 0.0, 0.0)","$VNYMR,+161.884,+026.227,-101.725,-00.3963,-00.3087,-00.2035,+03.394,+09.297,-00.304,+00.009328,+00.766381,-00.134374*6C
"
1698874271.1992908,0,1698874271,159113168,GPS1_Frame,0,0,0,,-0.2653523985163182,-0.7241331896513185,0.6327599206528673,-0.06952777187873595,"(0.0, 0.0, 0.0, 0.0, 0.0, 0.0, 0.0, 0.0, 0.0)",0.049626,0.68879,-0.070005,"(0.0, 0.0, 0.0, 0.0, 0.0, 0.0, 0.0, 0.0, 0.0)",3.351,9.368,0.702,"(0.0, 0.0, 0.0, 0.0, 0.0, 0.0, 0.0, 0.0, 0.0)",0,0,0,,-3.943e-05,-3.122e-05,-1.9960000000000002e-05,"(0.0, 0.0, 0.0, 0.0, 0.0, 0.0, 0.0, 0.0, 0.0)","$VNYMR,+160.771,+025.881,-102.163,-00.3943,-00.3122,-00.1996,+03.351,+09.368,+00.702,+00.049626,+00.688790,-00.070005*67
"
1698874271.1993768,0,1698874271,183250904,GPS1_Frame,0,0,0,,-0.2694032079817639,-0.7239245177927816,0.6319033531194028,-0.06366597508935505,"(0.0, 0.0, 0.0, 0.0, 0.0, 0.0, 0.0, 0.0, 0.0)",0.136082,0.449973,-0.049532,"(0.0, 0.0, 0.0, 0.0, 0.0, 0.0, 0.0, 0.0, 0.0)",3.368,9.37,1.366,"(0.0, 0.0, 0.0, 0.0, 0.0, 0.0, 0.0, 0.0, 0.0)",0,0,0,,-3.943e-05,-3.122e-05,-2.06e-05,"(0.0, 0.0, 0.0, 0.0, 0.0, 0.0, 0.0, 0.0, 0.0)","$VNYMR,+159.916,+025.636,-102.380,-00.3943,-00.3122,-00.2060,+03.368,+09.370,+01.366,+00.136082,+00.449973,-00.049532*6E
"
1698874271.2525125,0,1698874271,209227085,GPS1_Frame,0,0,0,,-0.27099294049759054,-0.7233423479767722,0.6321034278570515,-0.06151365958293152,"(0.0, 0.0, 0.0, 0.0, 0.0, 0.0, 0.0, 0.0, 0.0)",0.049949,0.022913,0.033298,"(0.0, 0.0, 0.0, 0.0, 0.0, 0.0, 0.0, 0.0, 0.0)",3.577,9.345,1.215,"(0.0, 0.0, 0.0, 0.0, 0.0, 0.0, 0.0, 0.0, 0.0)",0,0,0,,-3.922e-05,-3.111e-05,-2.097e-05,"(0.0, 0.0, 0.0, 0.0, 0.0, 0.0, 0.0, 0.0, 0.0)","$VNYMR,+159.611,+025.568,-102.375,-00.3922,-00.3111,-00.2097,+03.577,+09.345,+01.215,+00.049949,+00.022913,+00.033298*64
"
1698874271.2595072,0,1698874271,236514806,GPS1_Frame,0,0,0,,-0.2699336725695939,-0.7233383591494714,0.6323958027689993,-0.06319002481558571,"(0.0, 0.0, 0.0, 0.0, 0.0, 0.0, 0.0, 0.0, 0.0)",-0.059004,-0.228549,-0.005667,"(0.0, 0.0, 0.0, 0.0, 0.0, 0.0, 0.0, 0.0, 0.0)",3.549,9.127,0.383,"(0.0, 0.0, 0.0, 0.0, 0.0, 0.0, 0.0, 0.0, 0.0)",0,0,0,,-3.921e-05,-3.077e-05,-2.072e-05,"(0.0, 0.0, 0.0, 0.0, 0.0, 0.0, 0.0, 0.0, 0.0)","$VNYMR,+159.847,+025.647,-102.308,-00.3921,-00.3077,-00.2072,+03.549,+09.127,+00.383,-00.059004,-00.228549,-00.005667*6D
"
1698874271.302251,0,1698874271,260163545,GPS1_Frame,0,0,0,,-0.26804861001526836,-0.7238966293684179,0.6323658524743455,-0.06509255934682745,"(0.0, 0.0, 0.0, 0.0, 0.0, 0.0, 0.0, 0.0, 0.0)",-0.077253,-0.134935,-0.024785,"(0.0, 0.0, 0.0, 0.0, 0.0, 0.0, 0.0, 0.0, 0.0)",3.407,9.41,-0.393,"(0.0, 0.0, 0.0, 0.0, 0.0, 0.0, 0.0, 0.0, 0.0)",0,0,0,,-3.911e-05,-3.1230000000000004e-05,-2.084e-05,"(0.0, 0.0, 0.0, 0.0, 0.0, 0.0, 0.0, 0.0, 0.0)","$VNYMR,+160.169,+025.674,-102.284,-00.3911,-00.3123,-00.2084,+03.407,+09.410,-00.393,-00.077253,-00.134935,-00.024785*6B
"
1698874271.3022683,0,1698874271,289399862,GPS1_Frame,0,0,0,,-0.2684129432437266,-0.7240138822705079,0.6320844594493695,-0.06502019918014149,"(0.0, 0.0, 0.0, 0.0, 0.0, 0.0, 0.0, 0.0, 0.0)",0.002765,0.129689,0.05004,"(0.0, 0.0, 0.0, 0.0, 0.0, 0.0, 0.0, 0.0, 0.0)",3.611,9.452,-0.443,"(0.0, 0.0, 0.0, 0.0, 0.0, 0.0, 0.0, 0.0, 0.0)",0,0,0,,-3.911e-05,-3.111e-05,-2.084e-05,"(0.0, 0.0, 0.0, 0.0, 0.0, 0.0, 0.0, 0.0, 0.0)","$VNYMR,+160.118,+025.688,-102.333,-00.3911,-00.3111,-00.2084,+03.611,+09.452,-00.443,+00.002765,+00.129689,+00.050040*66
"
1698874271.3425195,0,1698874271,307318449,GPS1_Frame,0,0,0,,-0.2706670789130791,-0.7237570241089363,0.631593825719263,-0.06327986851237133,"(0.0, 0.0, 0.0, 0.0, 0.0, 0.0, 0.0, 0.0, 0.0)",0.030155,0.253756,0.028942,"(0.0, 0.0, 0.0, 0.0, 0.0, 0.0, 0.0, 0.0, 0.0)",3.711,9.04,0.001,"(0.0, 0.0, 0.0, 0.0, 0.0, 0.0, 0.0, 0.0, 0.0)",0,0,0,,-3.921e-05,-3.088e-05,-2.085e-05,"(0.0, 0.0, 0.0, 0.0, 0.0, 0.0, 0.0, 0.0, 0.0)","$VNYMR,+159.753,+025.690,-102.443,-00.3921,-00.3088,-00.2085,+03.711,+09.040,+00.001,+00.030155,+00.253756,+00.028942*60
"
1698874271.3508034,0,1698874271,335016965,GPS1_Frame,0,0,0,,-0.27242594941198506,-0.7238775002150757,0.6309378684669955,-0.060851235843456405,"(0.0, 0.0, 0.0, 0.0, 0.0, 0.0, 0.0, 0.0, 0.0)",0.003935,0.219318,-0.036617,"(0.0, 0.0, 0.0, 0.0, 0.0, 0.0, 0.0, 0.0, 0.0)",3.723,9.235,0.455,"(0.0, 0.0, 0.0, 0.0, 0.0, 0.0, 0.0, 0.0, 0.0)",0,0,0,,-3.9200000000000004e-05,-3.065e-05,-2.098e-05,"(0.0, 0.0, 0.0, 0.0, 0.0, 0.0, 0.0, 0.0, 0.0)","$VNYMR,+159.381,+025.586,-102.579,-00.3920,-00.3065,-00.2098,+03.723,+09.235,+00.455,+00.003935,+00.219318,-00.036617*65
"
1698874271.3952122,0,1698874271,356790304,GPS1_Frame,0,0,0,,-0.27361344341586147,-0.7241266428106067,0.6302265565289039,-0.05992308569888126,"(0.0, 0.0, 0.0, 0.0, 0.0, 0.0, 0.0, 0.0, 0.0)",-0.02688,0.092549,0.04779,"(0.0, 0.0, 0.0, 0.0, 0.0, 0.0, 0.0, 0.0, 0.0)",3.715,9.262,0.604,"(0.0, 0.0, 0.0, 0.0, 0.0, 0.0, 0.0, 0.0, 0.0)",0,0,0,,-3.963e-05,-3.099e-05,-2.086e-05,"(0.0, 0.0, 0.0, 0.0, 0.0, 0.0, 0.0, 0.0, 0.0)","$VNYMR,+159.172,+025.573,-102.709,-00.3963,-00.3099,-00.2086,+03.715,+09.262,+00.604,-00.026880,+00.092549,+00.047790*6D
"
1698874271.4387803,0,1698874271,383261680,GPS1_Frame,0,0,0,,-0.27457090922797,-0.7238995563485107,0.6299622463276744,-0.061055845960447025,"(0.0, 0.0, 0.0, 0.0, 0.0, 0.0, 0.0, 0.0, 0.0)",-0.036057,-0.100785,0.146806,"(0.0, 0.0, 0.0, 0.0, 0.0, 0.0, 0.0, 0.0, 0.0)",4.215,8.784,0.625,"(0.0, 0.0, 0.0, 0.0, 0.0, 0.0, 0.0, 0.0, 0.0)",0,0,0,,-3.943e-05,-3.1100000000000004e-05,-2.072e-05,"(0.0, 0.0, 0.0, 0.0, 0.0, 0.0, 0.0, 0.0, 0.0)","$VNYMR,+159.150,+025.743,-102.753,-00.3943,-00.3110,-00.2072,+04.215,+08.784,+00.625,-00.036057,-00.100785,+00.146806*6A
"
1698874271.438803,0,1698874271,406862258,GPS1_Frame,0,0,0,,-0.273716699362919,-0.7237451911321193,0.6302265578642112,-0.06392614931019691,"(0.0, 0.0, 0.0, 0.0, 0.0, 0.0, 0.0, 0.0, 0.0)",-0.053678,-0.279164,0.018293,"(0.0, 0.0, 0.0, 0.0, 0.0, 0.0, 0.0, 0.0, 0.0)",4.596,8.184,0.096,"(0.0, 0.0, 0.0, 0.0, 0.0, 0.0, 0.0, 0.0, 0.0)",0,0,0,,-3.931e-05,-3.054e-05,-2.098e-05,"(0.0, 0.0, 0.0, 0.0, 0.0, 0.0, 0.0, 0.0, 0.0)","$VNYMR,+159.451,+025.947,-102.685,-00.3931,-00.3054,-00.2098,+04.596,+08.184,+00.096,-00.053678,-00.279164,+00.018293*6A
"
1698874271.4868572,0,1698874271,431961059,GPS1_Frame,0,0,0,,-0.27024079115455746,-0.7241052223941435,0.631090633739937,-0.06607687722200183,"(0.0, 0.0, 0.0, 0.0, 0.0, 0.0, 0.0, 0.0, 0.0)",-0.012984,-0.326678,-0.16019,"(0.0, 0.0, 0.0, 0.0, 0.0, 0.0, 0.0, 0.0, 0.0)",4.534,8.747,-0.592,"(0.0, 0.0, 0.0, 0.0, 0.0, 0.0, 0.0, 0.0, 0.0)",0,0,0,,-3.942e-05,-3.076e-05,-2.06e-05,"(0.0, 0.0, 0.0, 0.0, 0.0, 0.0, 0.0, 0.0, 0.0)","$VNYMR,+159.980,+025.899,-102.501,-00.3942,-00.3076,-00.2060,+04.534,+08.747,-00.592,-00.012984,-00.326678,-00.160190*63
"
1698874271.486865,0,1698874271,462965250,GPS1_Frame,0,0,0,,-0.26569900035156213,-0.7246431520827417,0.6321714341266692,-0.06823211286483387,"(0.0, 0.0, 0.0, 0.0, 0.0, 0.0, 0.0, 0.0, 0.0)",-0.063162,-0.407614,-0.164251,"(0.0, 0.0, 0.0, 0.0, 0.0, 0.0, 0.0, 0.0, 0.0)",4.109,9.346,-1.286,"(0.0, 0.0, 0.0, 0.0, 0.0, 0.0, 0.0, 0.0, 0.0)",0,0,0,,-3.901e-05,-3.134e-05,-2.0200000000000003e-05,"(0.0, 0.0, 0.0, 0.0, 0.0, 0.0, 0.0, 0.0, 0.0)","$VNYMR,+160.621,+025.774,-102.272,-00.3901,-00.3134,-00.2020,+04.109,+09.346,-01.286,-00.063162,-00.407614,-00.164251*69
"
1698874271.5306263,0,1698874271,483808994,GPS1_Frame,0,0,0,,-0.26167453774086014,-0.72523849795963,0.6327996883456598,-0.07155495653693691,"(0.0, 0.0, 0.0, 0.0, 0.0, 0.0, 0.0, 0.0, 0.0)",-0.092336,-0.365816,-0.007618,"(0.0, 0.0, 0.0, 0.0, 0.0, 0.0, 0.0, 0.0, 0.0)",3.698,9.651,-2.179,"(0.0, 0.0, 0.0, 0.0, 0.0, 0.0, 0.0, 0.0, 0.0)",0,0,0,,-3.933e-05,-3.122e-05,-2.021e-05,"(0.0, 0.0, 0.0, 0.0, 0.0, 0.0, 0.0, 0.0, 0.0)","$VNYMR,+161.280,+025.783,-102.109,-00.3933,-00.3122,-00.2021,+03.698,+09.651,-02.179,-00.092336,-00.365816,-00.007618*63
"
1698874271.5306485,0,1698874271,506828308,GPS1_Frame,0,0,0,,-0.2608946807668371,-0.7252623006304572,0.6326783095957584,-0.07514464318126896,"(0.0, 0.0, 0.0, 0.0, 0.0, 0.0, 0.0, 0.0, 0.0)",-0.112685,-0.16208,0.231009,"(0.0, 0.0, 0.0, 0.0, 0.0, 0.0, 0.0, 0.0, 0.0)",3.9,8.945,-2.627,"(0.0, 0.0, 0.0, 0.0, 0.0, 0.0, 0.0, 0.0, 0.0)",0,0,0,,-3.9000000000000006e-05,-3.1e-05,-2.021e-05,"(0.0, 0.0, 0.0, 0.0, 0.0, 0.0, 0.0, 0.0, 0.0)","$VNYMR,+161.616,+026.048,-102.088,-00.3900,-00.3100,-00.2021,+03.900,+08.945,-02.627,-00.112685,-00.162080,+00.231009*6B
"
1698874271.5747342,0,1698874271,534364223,GPS1_Frame,0,0,0,,-0.2636754883336513,-0.7256683332607459,0.6306668483385203,-0.07835836497362272,"(0.0, 0.0, 0.0, 0.0, 0.0, 0.0, 0.0, 0.0, 0.0)",-0.226704,0.144219,0.369734,"(0.0, 0.0, 0.0, 0.0, 0.0, 0.0, 0.0, 0.0, 0.0)",4.516,7.513,-2.712,"(0.0, 0.0, 0.0, 0.0, 0.0, 0.0, 0.0, 0.0, 0.0)",0,0,0,,-3.901e-05,-3.112e-05,-2.046e-05,"(0.0, 0.0, 0.0, 0.0, 0.0, 0.0, 0.0, 0.0, 0.0)","$VNYMR,+161.507,+026.507,-102.405,-00.3901,-00.3112,-00.2046,+04.516,+07.513,-02.712,-00.226704,+00.144219,+00.369734*66
"
1698874271.575289,0,1698874271,563001632,GPS1_Frame,0,0,0,,-0.27081951877064636,-0.7272339030705773,0.6258347759502206,-0.07822066024335815,"(0.0, 0.0, 0.0, 0.0, 0.0, 0.0, 0.0, 0.0, 0.0)",-0.322325,0.796776,0.431078,"(0.0, 0.0, 0.0, 0.0, 0.0, 0.0, 0.0, 0.0, 0.0)",5.706,5.89,-1.976,"(0.0, 0.0, 0.0, 0.0, 0.0, 0.0, 0.0, 0.0, 0.0)",0,0,0,,-3.973e-05,-3.053e-05,-2.112e-05,"(0.0, 0.0, 0.0, 0.0, 0.0, 0.0, 0.0, 0.0, 0.0)","$VNYMR,+160.612,+026.920,-103.254,-00.3973,-00.3053,-00.2112,+05.706,+05.890,-01.976,-00.322325,+00.796776,+00.431078*60
"
1698874271.6193538,0,1698874271,582085609,GPS1_Frame,0,0,0,,-0.28361975751313084,-0.7296391599552774,0.6184345996940431,-0.06873991059943928,"(0.0, 0.0, 0.0, 0.0, 0.0, 0.0, 0.0, 0.0, 0.0)",-0.200084,1.741042,0.014798,"(0.0, 0.0, 0.0, 0.0, 0.0, 0.0, 0.0, 0.0, 0.0)",5.99,4.094,0.483,"(0.0, 0.0, 0.0, 0.0, 0.0, 0.0, 0.0, 0.0, 0.0)",0,0,0,,-3.982e-05,-2.995e-05,-2.253e-05,"(0.0, 0.0, 0.0, 0.0, 0.0, 0.0, 0.0, 0.0, 0.0)","$VNYMR,+158.378,+026.815,-104.644,-00.3982,-00.2995,-00.2253,+05.990,+04.094,+00.483,-00.200084,+01.741042,+00.014798*69
"
1698874271.66341,0,1698874271,607184171,GPS1_Frame,0,0,0,,-0.29414681476094706,-0.7323961752416541,0.6124952148186562,-0.0438532288621189,"(0.0, 0.0, 0.0, 0.0, 0.0, 0.0, 0.0, 0.0, 0.0)",0.372439,2.193001,-1.105882,"(0.0, 0.0, 0.0, 0.0, 0.0, 0.0, 0.0, 0.0, 0.0)",4.606,5.405,3.661,"(0.0, 0.0, 0.0, 0.0, 0.0, 0.0, 0.0, 0.0, 0.0)",0,0,0,,-3.9290000000000005e-05,-3.0080000000000003e-05,-2.3400000000000003e-05,"(0.0, 0.0, 0.0, 0.0, 0.0, 0.0, 0.0, 0.0, 0.0)","$VNYMR,+155.383,+025.123,-105.756,-00.3929,-00.3008,-00.2340,+04.606,+05.405,+03.661,+00.372439,+02.193001,-01.105882*6C
"
1698874271.6636295,0,1698874271,632866859,GPS1_Frame,0,0,0,,-0.293186431981664,-0.7344902983528209,0.6118027854862994,-0.016219414251152364,"(0.0, 0.0, 0.0, 0.0, 0.0, 0.0, 0.0, 0.0, 0.0)",0.529706,0.960833,-1.502425,"(0.0, 0.0, 0.0, 0.0, 0.0, 0.0, 0.0, 0.0, 0.0)",3.298,9.673,5.245,"(0.0, 0.0, 0.0, 0.0, 0.0, 0.0, 0.0, 0.0, 0.0)",0,0,0,,-3.846e-05,-3.09e-05,-2.463e-05,"(0.0, 0.0, 0.0, 0.0, 0.0, 0.0, 0.0, 0.0, 0.0)","$VNYMR,+153.598,+022.493,-105.755,-00.3846,-00.3090,-00.2463,+03.298,+09.673,+05.245,+00.529706,+00.960833,-01.502425*66
"
1698874271.7067325,0,1698874271,660692453,GPS1_Frame,0,0,0,,-0.2794284026754445,-0.7364313882628489,0.6160151927668606,-0.010670540750607832,"(0.0, 0.0, 0.0, 0.0, 0.0, 0.0, 0.0, 0.0, 0.0)",0.011868,-1.415344,-0.81121,"(0.0, 0.0, 0.0, 0.0, 0.0, 0.0, 0.0, 0.0, 0.0)",2.617,11.763,3.047,"(0.0, 0.0, 0.0, 0.0, 0.0, 0.0, 0.0, 0.0, 0.0)",0,0,0,,-3.7850000000000005e-05,-3.1830000000000005e-05,-2.321e-05,"(0.0, 0.0, 0.0, 0.0, 0.0, 0.0, 0.0, 0.0, 0.0)","$VNYMR,+154.720,+021.099,-104.959,-00.3785,-00.3183,-00.2321,+02.617,+11.763,+03.047,+00.011868,-01.415344,-00.811210*65
"
1698874271.7067616,0,1698874271,682228565,GPS1_Frame,0,0,0,,-0.2562684159049242,-0.7398012727310544,0.6214045850633371,-0.02961279347435701,"(0.0, 0.0, 0.0, 0.0, 0.0, 0.0, 0.0, 0.0, 0.0)",-0.395919,-2.760155,-0.371493,"(0.0, 0.0, 0.0, 0.0, 0.0, 0.0, 0.0, 0.0, 0.0)",2.509,11.204,-2.076,"(0.0, 0.0, 0.0, 0.0, 0.0, 0.0, 0.0, 0.0, 0.0)",0,0,0,,-3.745e-05,-3.253e-05,-2.23e-05,"(0.0, 0.0, 0.0, 0.0, 0.0, 0.0, 0.0, 0.0, 0.0)","$VNYMR,+158.449,+021.242,-104.030,-00.3745,-00.3253,-00.2230,+02.509,+11.204,-02.076,-00.395919,-02.760155,-00.371493*67
"
1698874271.751439,0,1698874271,707869768,GPS1_Frame,0,0,0,,-0.23447687162281716,-0.7422720120679567,0.6255623742890132,-0.05219743909864338,"(0.0, 0.0, 0.0, 0.0, 0.0, 0.0, 0.0, 0.0, 0.0)",-0.30734,-2.059074,-0.149565,"(0.0, 0.0, 0.0, 0.0, 0.0, 0.0, 0.0, 0.0, 0.0)",3.095,10.779,-6.213,"(0.0, 0.0, 0.0, 0.0, 0.0, 0.0, 0.0, 0.0, 0.0)",0,0,0,,-3.692e-05,-3.231e-05,-2.114e-05,"(0.0, 0.0, 0.0, 0.0, 0.0, 0.0, 0.0, 0.0, 0.0)","$VNYMR,+162.272,+021.768,-103.189,-00.3692,-00.3231,-00.2114,+03.095,+10.779,-06.213,-00.307340,-02.059074,-00.149565*6A
"
1698874271.7514937,0,1698874271,735185861,GPS1_Frame,0,0,0,,-0.22647884825469716,-0.7423092924288826,0.6275659875182369,-0.06200949102530612,"(0.0, 0.0, 0.0, 0.0, 0.0, 0.0, 0.0, 0.0, 0.0)",-0.001048,-0.326856,0.123903,"(0.0, 0.0, 0.0, 0.0, 0.0, 0.0, 0.0, 0.0, 0.0)",3.965,10.272,-7.144,"(0.0, 0.0, 0.0, 0.0, 0.0, 0.0, 0.0, 0.0, 0.0)",0,0,0,,-3.682e-05,-3.243e-05,-2.076e-05,"(0.0, 0.0, 0.0, 0.0, 0.0, 0.0, 0.0, 0.0, 0.0)","$VNYMR,+163.805,+022.106,-102.760,-00.3682,-00.3243,-00.2076,+03.965,+10.272,-07.144,-00.001048,-00.326856,+00.123903*6C
"
1698874271.7957253,0,1698874271,758294343,GPS1_Frame,0,0,0,,-0.2327301005537274,-0.7412583180132967,0.6268577683889931,-0.05849909813597062,"(0.0, 0.0, 0.0, 0.0, 0.0, 0.0, 0.0, 0.0, 0.0)",0.111877,0.982473,0.231795,"(0.0, 0.0, 0.0, 0.0, 0.0, 0.0, 0.0, 0.0, 0.0)",4.758,8.572,-5.998,"(0.0, 0.0, 0.0, 0.0, 0.0, 0.0, 0.0, 0.0, 0.0)",0,0,0,,-3.703e-05,-3.242e-05,-2.038e-05,"(0.0, 0.0, 0.0, 0.0, 0.0, 0.0, 0.0, 0.0, 0.0)","$VNYMR,+162.931,+022.241,-102.939,-00.3703,-00.3242,-00.2038,+04.758,+08.572,-05.998,+00.111877,+00.982473,+00.231795*62
"
1698874271.7957418,0,1698874271,783382415,GPS1_Frame,0,0,0,,-0.24377687732222394,-0.742114220970259,0.622612179266594,-0.046833656120719505,"(0.0, 0.0, 0.0, 0.0, 0.0, 0.0, 0.0, 0.0, 0.0)",-0.123678,1.500506,-0.101396,"(0.0, 0.0, 0.0, 0.0, 0.0, 0.0, 0.0, 0.0, 0.0)",5.125,7.045,-4.287,"(0.0, 0.0, 0.0, 0.0, 0.0, 0.0, 0.0, 0.0, 0.0)",0,0,0,,-3.712e-05,-3.185e-05,-2.166e-05,"(0.0, 0.0, 0.0, 0.0, 0.0, 0.0, 0.0, 0.0, 0.0)","$VNYMR,+160.906,+021.905,-103.737,-00.3712,-00.3185,-00.2166,+05.125,+07.045,-04.287,-00.123678,+01.500506,-00.101396*6B
"
1698874271.8428235,0,1698874271,808338880,GPS1_Frame,0,0,0,,-0.252425141082537,-0.7459361715601128,0.6156223994201858,-0.029493006625921483,"(0.0, 0.0, 0.0, 0.0, 0.0, 0.0, 0.0, 0.0, 0.0)",-0.301167,1.644016,-0.579163,"(0.0, 0.0, 0.0, 0.0, 0.0, 0.0, 0.0, 0.0, 0.0)",4.958,6.987,-2.98,"(0.0, 0.0, 0.0, 0.0, 0.0, 0.0, 0.0, 0.0, 0.0)",0,0,0,,-3.659e-05,-3.198e-05,-2.253e-05,"(0.0, 0.0, 0.0, 0.0, 0.0, 0.0, 0.0, 0.0, 0.0)","$VNYMR,+158.657,+020.781,-104.892,-00.3659,-00.3198,-00.2253,+04.958,+06.987,-02.980,-00.301167,+01.644016,-00.579163*68
"
1698874271.8428771,0,1698874271,832858324,GPS1_Frame,0,0,0,,-0.2579039406550406,-0.7515636408114694,0.6070956287206705,-0.008517557928411523,"(0.0, 0.0, 0.0, 0.0, 0.0, 0.0, 0.0, 0.0, 0.0)",-0.389679,1.748045,-0.912748,"(0.0, 0.0, 0.0, 0.0, 0.0, 0.0, 0.0, 0.0, 0.0)",4.081,7.736,-2.057,"(0.0, 0.0, 0.0, 0.0, 0.0, 0.0, 0.0, 0.0, 0.0)",0,0,0,,-3.639e-05,-3.232e-05,-2.366e-05,"(0.0, 0.0, 0.0, 0.0, 0.0, 0.0, 0.0, 0.0, 0.0)","$VNYMR,+156.477,+019.023,-106.135,-00.3639,-00.3232,-00.2366,+04.081,+07.736,-02.057,-00.389679,+01.748045,-00.912748*61
"
1698874271.8866878,0,1698874271,861710309,GPS1_Frame,0,0,0,,-0.2614411407700335,-0.7584329085355905,0.5968656504315051,0.013395838834662513,"(0.0, 0.0, 0.0, 0.0, 0.0, 0.0, 0.0, 0.0, 0.0)",-0.560407,1.680289,-1.040432,"(0.0, 0.0, 0.0, 0.0, 0.0, 0.0, 0.0, 0.0, 0.0)",3.065,8.23,-1.229,"(0.0, 0.0, 0.0, 0.0, 0.0, 0.0, 0.0, 0.0, 0.0)",0,0,0,,-3.553e-05,-3.2000000000000005e-05,-2.5169999999999998e-05,"(0.0, 0.0, 0.0, 0.0, 0.0, 0.0, 0.0, 0.0, 0.0)","$VNYMR,+154.448,+016.964,-107.470,-00.3553,-00.3200,-00.2517,+03.065,+08.230,-01.229,-00.560407,+01.680289,-01.040432*64
"
1698874271.903951,0,1698874271,884669780,GPS1_Frame,0,0,0,,-0.26294412614081425,-0.7665991108679207,0.5847000466796642,0.036222163896644566,"(0.0, 0.0, 0.0, 0.0, 0.0, 0.0, 0.0, 0.0, 0.0)",-0.677815,1.77339,-1.301979,"(0.0, 0.0, 0.0, 0.0, 0.0, 0.0, 0.0, 0.0, 0.0)",1.406,8.903,-0.666,"(0.0, 0.0, 0.0, 0.0, 0.0, 0.0, 0.0, 0.0, 0.0)",0,0,0,,-3.4710000000000005e-05,-3.3050000000000004e-05,-2.627e-05,"(0.0, 0.0, 0.0, 0.0, 0.0, 0.0, 0.0, 0.0, 0.0)","$VNYMR,+152.590,+014.593,-108.910,-00.3471,-00.3305,-00.2627,+01.406,+08.903,-00.666,-00.677815,+01.773390,-01.301979*6D
"
1698874271.9467723,0,1698874271,907612562,GPS1_Frame,0,0,0,,-0.26447667803375136,-0.7741698672026651,0.5717182629770035,0.06205909498370968,"(0.0, 0.0, 0.0, 0.0, 0.0, 0.0, 0.0, 0.0, 0.0)",-0.521404,2.036197,-1.263572,"(0.0, 0.0, 0.0, 0.0, 0.0, 0.0, 0.0, 0.0, 0.0)",0.346,10.389,0.007,"(0.0, 0.0, 0.0, 0.0, 0.0, 0.0, 0.0, 0.0, 0.0)",0,0,0,,-3.3860000000000004e-05,-3.33e-05,-2.7760000000000002e-05,"(0.0, 0.0, 0.0, 0.0, 0.0, 0.0, 0.0, 0.0, 0.0)","$VNYMR,+150.592,+011.907,-110.244,-00.3386,-00.3330,-00.2776,+00.346,+10.389,+00.007,-00.521404,+02.036197,-01.263572*6C
"
1698874271.9908817,0,1698874271,932505130,GPS1_Frame,0,0,0,,-0.2702274503705213,-0.7777425056601402,0.5601728015333738,0.09110517207044581,"(0.0, 0.0, 0.0, 0.0, 0.0, 0.0, 0.0, 0.0, 0.0)",-0.193753,2.395776,-0.98719,"(0.0, 0.0, 0.0, 0.0, 0.0, 0.0, 0.0, 0.0, 0.0)",-0.497,10.997,1.175,"(0.0, 0.0, 0.0, 0.0, 0.0, 0.0, 0.0, 0.0, 0.0)",0,0,0,,-3.269000000000001e-05,-3.299e-05,-2.9e-05,"(0.0, 0.0, 0.0, 0.0, 0.0, 0.0, 0.0, 0.0, 0.0)","$VNYMR,+148.041,+009.267,-111.132,-00.3269,-00.3299,-00.2900,-00.497,+10.997,+01.175,-00.193753,+02.395776,-00.987190*6E
"
1698874271.990893,0,1698874271,956927537,GPS1_Frame,0,0,0,,-0.27867565459388494,-0.7776894788657517,0.5505357610229401,0.12020536524247769,"(0.0, 0.0, 0.0, 0.0, 0.0, 0.0, 0.0, 0.0, 0.0)",0.031379,2.315442,-0.733209,"(0.0, 0.0, 0.0, 0.0, 0.0, 0.0, 0.0, 0.0, 0.0)",-0.678,11.259,2.259,"(0.0, 0.0, 0.0, 0.0, 0.0, 0.0, 0.0, 0.0, 0.0)",0,0,0,,-3.186e-05,-3.358e-05,-2.9480000000000002e-05,"(0.0, 0.0, 0.0, 0.0, 0.0, 0.0, 0.0, 0.0, 0.0)","$VNYMR,+145.256,+006.885,-111.566,-00.3186,-00.3358,-00.2948,-00.678,+11.259,+02.259,+00.031379,+02.315442,-00.733209*61
"
1698874272.03586,0,1698874271,983174085,GPS1_Frame,0,0,0,,-0.28666741925544154,-0.7765083150924741,0.5429374694350385,0.14168814916268951,"(0.0, 0.0, 0.0, 0.0, 0.0, 0.0, 0.0, 0.0, 0.0)",-0.137265,1.475599,-0.343306,"(0.0, 0.0, 0.0, 0.0, 0.0, 0.0, 0.0, 0.0, 0.0)",-0.149,10.723,2.592,"(0.0, 0.0, 0.0, 0.0, 0.0, 0.0, 0.0, 0.0, 0.0)",0,0,0,,-3.121e-05,-3.3260000000000003e-05,-3.061e-05,"(0.0, 0.0, 0.0, 0.0, 0.0, 0.0, 0.0, 0.0, 0.0)","$VNYMR,+143.018,+005.235,-111.829,-00.3121,-00.3326,-00.3061,-00.149,+10.723,+02.592,-00.137265,+01.475599,-00.343306*65
"
1698874272.0358872,0,1698874272,12394666,GPS1_Frame,0,0,0,,-0.2909104925787297,-0.7786633508820965,0.5347709441095015,0.1519029579596748,"(0.0, 0.0, 0.0, 0.0, 0.0, 0.0, 0.0, 0.0, 0.0)",-0.546637,0.802808,-0.399515,"(0.0, 0.0, 0.0, 0.0, 0.0, 0.0, 0.0, 0.0, 0.0)",-0.606,9.492,1.119,"(0.0, 0.0, 0.0, 0.0, 0.0, 0.0, 0.0, 0.0, 0.0)",0,0,0,,-3.069e-05,-3.373e-05,-3.109e-05,"(0.0, 0.0, 0.0, 0.0, 0.0, 0.0, 0.0, 0.0, 0.0)","$VNYMR,+141.886,+004.277,-112.517,-00.3069,-00.3373,-00.3109,-00.606,+09.492,+01.119,-00.546637,+00.802808,-00.399515*6D
"
1698874272.078324,0,1698874272,36213397,GPS1_Frame,0,0,0,,-0.293482043790994,-0.7821545088641898,0.5249837478354217,0.1627718610336361,"(0.0, 0.0, 0.0, 0.0, 0.0, 0.0, 0.0, 0.0, 0.0)",-0.480639,1.200209,-0.52234,"(0.0, 0.0, 0.0, 0.0, 0.0, 0.0, 0.0, 0.0, 0.0)",-1.333,10.409,0.102,"(0.0, 0.0, 0.0, 0.0, 0.0, 0.0, 0.0, 0.0, 0.0)",0,0,0,,-3.0680000000000004e-05,-3.327e-05,-3.224e-05,"(0.0, 0.0, 0.0, 0.0, 0.0, 0.0, 0.0, 0.0, 0.0)","$VNYMR,+140.883,+003.068,-113.351,-00.3068,-00.3327,-00.3224,-01.333,+10.409,+00.102,-00.480639,+01.200209,-00.522340*6F
"
1698874272.0783446,0,1698874272,57409763,GPS1_Frame,0,0,0,,-0.3010006841883722,-0.7824308232380371,0.5146679974914488,0.1797705407549347,"(0.0, 0.0, 0.0, 0.0, 0.0, 0.0, 0.0, 0.0, 0.0)",-0.273851,1.871021,-0.260887,"(0.0, 0.0, 0.0, 0.0, 0.0, 0.0, 0.0, 0.0, 0.0)",-1.616,10.789,0.925,"(0.0, 0.0, 0.0, 0.0, 0.0, 0.0, 0.0, 0.0, 0.0)",0,0,0,,-2.97e-05,-3.215e-05,-3.273e-05,"(0.0, 0.0, 0.0, 0.0, 0.0, 0.0, 0.0, 0.0, 0.0)","$VNYMR,+138.979,+001.634,-113.939,-00.2970,-00.3215,-00.3273,-01.616,+10.789,+00.925,-00.273851,+01.871021,-00.260887*65
"
1698874272.1231804,0,1698874272,82953691,GPS1_Frame,0,0,0,,-0.31334393406403394,-0.7790538474008216,0.5050869855415866,0.19944377371019828,"(0.0, 0.0, 0.0, 0.0, 0.0, 0.0, 0.0, 0.0, 0.0)",-0.16797,1.990391,-0.015686,"(0.0, 0.0, 0.0, 0.0, 0.0, 0.0, 0.0, 0.0, 0.0)",-1.026,9.751,2.789,"(0.0, 0.0, 0.0, 0.0, 0.0, 0.0, 0.0, 0.0, 0.0)",0,0,0,,-2.9180000000000002e-05,-3.251e-05,-3.373e-05,"(0.0, 0.0, 0.0, 0.0, 0.0, 0.0, 0.0, 0.0, 0.0)","$VNYMR,+136.393,+000.331,-114.219,-00.2918,-00.3251,-00.3373,-01.026,+09.751,+02.789,-00.167970,+01.990391,-00.015686*6A
"
1698874272.1232102,0,1698874272,114597797,GPS1_Frame,0,0,0,,-0.32380956198223165,-0.7766581038447802,0.49498986181869287,0.2166439336741679,"(0.0, 0.0, 0.0, 0.0, 0.0, 0.0, 0.0, 0.0, 0.0)",-0.309365,1.69833,-0.313687,"(0.0, 0.0, 0.0, 0.0, 0.0, 0.0, 0.0, 0.0, 0.0)",-1.815,8.916,3.355,"(0.0, 0.0, 0.0, 0.0, 0.0, 0.0, 0.0, 0.0, 0.0)",0,0,0,,-2.853e-05,-3.206e-05,-3.473e-05,"(0.0, 0.0, 0.0, 0.0, 0.0, 0.0, 0.0, 0.0, 0.0)","$VNYMR,+134.148,-000.914,-114.592,-00.2853,-00.3206,-00.3473,-01.815,+08.916,+03.355,-00.309365,+01.698330,-00.313687*64
"
1698874272.166347,0,1698874272,135701179,GPS1_Frame,0,0,0,,-0.3302072389561275,-0.7760761180507266,0.483520157890558,0.23425903450192764,"(0.0, 0.0, 0.0, 0.0, 0.0, 0.0, 0.0, 0.0, 0.0)",-0.334707,1.634042,-0.489786,"(0.0, 0.0, 0.0, 0.0, 0.0, 0.0, 0.0, 0.0, 0.0)",-2.441,10.62,3.805,"(0.0, 0.0, 0.0, 0.0, 0.0, 0.0, 0.0, 0.0, 0.0)",0,0,0,,-2.8110000000000004e-05,-3.196e-05,-3.4970000000000006e-05,"(0.0, 0.0, 0.0, 0.0, 0.0, 0.0, 0.0, 0.0, 0.0)","$VNYMR,+132.286,-002.538,-115.029,-00.2811,-00.3196,-00.3497,-02.441,+10.620,+03.805,-00.334707,+01.634042,-00.489786*68
"
1698874272.1663594,0,1698874272,157904386,GPS1_Frame,0,0,0,,-0.3380001504346187,-0.773255849191897,0.4745274968216682,0.25030969768839384,"(0.0, 0.0, 0.0, 0.0, 0.0, 0.0, 0.0, 0.0, 0.0)",-0.021091,1.558121,-0.002505,"(0.0, 0.0, 0.0, 0.0, 0.0, 0.0, 0.0, 0.0, 0.0)",-2.316,11.378,4.32,"(0.0, 0.0, 0.0, 0.0, 0.0, 0.0, 0.0, 0.0, 0.0)",0,0,0,,-2.7360000000000002e-05,-3.187e-05,-3.622e-05,"(0.0, 0.0, 0.0, 0.0, 0.0, 0.0, 0.0, 0.0, 0.0)","$VNYMR,+130.363,-003.803,-115.168,-00.2736,-00.3187,-00.3622,-02.316,+11.378,+04.320,-00.021091,+01.558121,-00.002505*6D
"
1698874272.215336,0,1698874272,186054468,GPS1_Frame,0,0,0,,-0.3478533344006106,-0.7676234011719286,0.47066911880291545,0.26119523794453936,"(0.0, 0.0, 0.0, 0.0, 0.0, 0.0, 0.0, 0.0, 0.0)",0.068725,0.970584,0.371769,"(0.0, 0.0, 0.0, 0.0, 0.0, 0.0, 0.0, 0.0, 0.0)",-1.745,10.229,4.794,"(0.0, 0.0, 0.0, 0.0, 0.0, 0.0, 0.0, 0.0, 0.0)",0,0,0,,-2.693e-05,-3.13e-05,-3.647e-05,"(0.0, 0.0, 0.0, 0.0, 0.0, 0.0, 0.0, 0.0, 0.0)","$VNYMR,+128.553,-004.218,-114.938,-00.2693,-00.3130,-00.3647,-01.745,+10.229,+04.794,+00.068725,+00.970584,+00.371769*63
"
1698874272.2280784,0,1698874272,214886426,GPS1_Frame,0,0,0,,-0.35423028689422126,-0.7648416972734433,0.46909786065208703,0.26360060525414414,"(0.0, 0.0, 0.0, 0.0, 0.0, 0.0, 0.0, 0.0, 0.0)",-0.074046,0.24684,0.239334,"(0.0, 0.0, 0.0, 0.0, 0.0, 0.0, 0.0, 0.0, 0.0)",-1.556,9.256,3.507,"(0.0, 0.0, 0.0, 0.0, 0.0, 0.0, 0.0, 0.0, 0.0)",0,0,0,,-2.713e-05,-3.118e-05,-3.66e-05,"(0.0, 0.0, 0.0, 0.0, 0.0, 0.0, 0.0, 0.0, 0.0)","$VNYMR,+127.706,-004.065,-114.960,-00.2713,-00.3118,-00.3660,-01.556,+09.256,+03.507,-00.074046,+00.246840,+00.239334*61
"
1698874272.2711997,0,1698874272,232587099,GPS1_Frame,0,0,0,,-0.35664212846468335,-0.7648487119776052,0.4674114845744677,0.26332364891568494,"(0.0, 0.0, 0.0, 0.0, 0.0, 0.0, 0.0, 0.0, 0.0)",-0.137445,0.158582,0.108054,"(0.0, 0.0, 0.0, 0.0, 0.0, 0.0, 0.0, 0.0, 0.0)",-1.701,10.049,1.84,"(0.0, 0.0, 0.0, 0.0, 0.0, 0.0, 0.0, 0.0, 0.0)",0,0,0,,-2.753e-05,-3.015e-05,-3.65e-05,"(0.0, 0.0, 0.0, 0.0, 0.0, 0.0, 0.0, 0.0, 0.0)","$VNYMR,+127.474,-003.980,-115.176,-00.2753,-00.3015,-00.3650,-01.701,+10.049,+01.840,-00.137445,+00.158582,+00.108054*65
"
1698874272.2715383,0,1698874272,257151842,GPS1_Frame,0,0,0,,-0.36128571438890467,-0.7629514649323837,0.465360811505708,0.2661146554603431,"(0.0, 0.0, 0.0, 0.0, 0.0, 0.0, 0.0, 0.0, 0.0)",-0.013303,0.686072,0.259667,"(0.0, 0.0, 0.0, 0.0, 0.0, 0.0, 0.0, 0.0, 0.0)",-2.038,10.501,1.318,"(0.0, 0.0, 0.0, 0.0, 0.0, 0.0, 0.0, 0.0, 0.0)",0,0,0,,-2.6690000000000004e-05,-3.0170000000000004e-05,-3.673e-05,"(0.0, 0.0, 0.0, 0.0, 0.0, 0.0, 0.0, 0.0, 0.0)","$VNYMR,+126.782,-004.003,-115.232,-00.2669,-00.3017,-00.3673,-02.038,+10.501,+01.318,-00.013303,+00.686072,+00.259667*6F
"
1698874272.3155844,0,1698874272,283252239,GPS1_Frame,0,0,0,,-0.3702310706735698,-0.7580943654266736,0.4623188503744196,0.27291604570766137,"(0.0, 0.0, 0.0, 0.0, 0.0, 0.0, 0.0, 0.0, 0.0)",0.009032,1.061881,0.41663,"(0.0, 0.0, 0.0, 0.0, 0.0, 0.0, 0.0, 0.0, 0.0)",-1.608,9.97,2.242,"(0.0, 0.0, 0.0, 0.0, 0.0, 0.0, 0.0, 0.0, 0.0)",0,0,0,,-2.7420000000000002e-05,-2.9809999999999997e-05,-3.701e-05,"(0.0, 0.0, 0.0, 0.0, 0.0, 0.0, 0.0, 0.0, 0.0)","$VNYMR,+125.336,-004.098,-115.128,-00.2742,-00.2981,-00.3701,-01.608,+09.970,+02.242,+00.009032,+01.061881,+00.416630*66
"
1698874272.3184783,0,1698874272,308897256,GPS1_Frame,0,0,0,,-0.38032538056933124,-0.7525463356120577,0.4585625782185981,0.28061892222223667,"(0.0, 0.0, 0.0, 0.0, 0.0, 0.0, 0.0, 0.0, 0.0)",-0.086434,1.000973,0.392547,"(0.0, 0.0, 0.0, 0.0, 0.0, 0.0, 0.0, 0.0, 0.0)",-1.184,9.716,3.339,"(0.0, 0.0, 0.0, 0.0, 0.0, 0.0, 0.0, 0.0, 0.0)",0,0,0,,-2.689e-05,-2.9820000000000002e-05,-3.776e-05,"(0.0, 0.0, 0.0, 0.0, 0.0, 0.0, 0.0, 0.0, 0.0)","$VNYMR,+123.691,-004.218,-115.030,-00.2689,-00.2982,-00.3776,-01.184,+09.716,+03.339,-00.086434,+01.000973,+00.392547*6E
"
1698874272.3667226,0,1698874272,335350751,GPS1_Frame,0,0,0,,-0.38936821751588296,-0.7481995782740806,0.4550638327988006,0.28549376584692215,"(0.0, 0.0, 0.0, 0.0, 0.0, 0.0, 0.0, 0.0, 0.0)",-0.151074,0.669724,0.431497,"(0.0, 0.0, 0.0, 0.0, 0.0, 0.0, 0.0, 0.0, 0.0)",-0.765,9.583,3.768,"(0.0, 0.0, 0.0, 0.0, 0.0, 0.0, 0.0, 0.0, 0.0)",0,0,0,,-2.6870000000000002e-05,-2.913e-05,-3.7890000000000005e-05,"(0.0, 0.0, 0.0, 0.0, 0.0, 0.0, 0.0, 0.0, 0.0)","$VNYMR,+122.357,-004.177,-115.084,-00.2687,-00.2913,-00.3789,-00.765,+09.583,+03.768,-00.151074,+00.669724,+00.431497*68
"
1698874272.4106853,0,1698874272,367052316,GPS1_Frame,0,0,0,,-0.3965309143068586,-0.7460588074525522,0.4522055439926097,0.28577899818529406,"(0.0, 0.0, 0.0, 0.0, 0.0, 0.0, 0.0, 0.0, 0.0)",-0.288819,0.300272,0.388589,"(0.0, 0.0, 0.0, 0.0, 0.0, 0.0, 0.0, 0.0, 0.0)",-0.415,9.012,3.225,"(0.0, 0.0, 0.0, 0.0, 0.0, 0.0, 0.0, 0.0, 0.0)",0,0,0,,-2.686e-05,-2.879e-05,-3.765e-05,"(0.0, 0.0, 0.0, 0.0, 0.0, 0.0, 0.0, 0.0, 0.0)","$VNYMR,+121.560,-003.887,-115.383,-00.2686,-00.2879,-00.3765,-00.415,+09.012,+03.225,-00.288819,+00.300272,+00.388589*64
"
1698874272.4108293,0,1698874272,387983560,GPS1_Frame,0,0,0,,-0.4016391453705895,-0.7454998364631745,0.4488232902705955,0.28543588570822603,"(0.0, 0.0, 0.0, 0.0, 0.0, 0.0, 0.0, 0.0, 0.0)",-0.298934,0.325559,0.149361,"(0.0, 0.0, 0.0, 0.0, 0.0, 0.0, 0.0, 0.0, 0.0)",-0.629,9.132,2.694,"(0.0, 0.0, 0.0, 0.0, 0.0, 0.0, 0.0, 0.0, 0.0)",0,0,0,,-2.7060000000000002e-05,-2.844e-05,-3.854000000000001e-05,"(0.0, 0.0, 0.0, 0.0, 0.0, 0.0, 0.0, 0.0, 0.0)","$VNYMR,+121.032,-003.730,-115.791,-00.2706,-00.2844,-00.3854,-00.629,+09.132,+02.694,-00.298934,+00.325559,+00.149361*60
"
1698874272.4605005,0,1698874272,407559156,GPS1_Frame,0,0,0,,-0.40598341786123876,-0.7447096416192323,0.4449310047507989,0.2874394112026155,"(0.0, 0.0, 0.0, 0.0, 0.0, 0.0, 0.0, 0.0, 0.0)",-0.201556,0.460083,0.159996,"(0.0, 0.0, 0.0, 0.0, 0.0, 0.0, 0.0, 0.0, 0.0)",-0.845,10.305,2.745,"(0.0, 0.0, 0.0, 0.0, 0.0, 0.0, 0.0, 0.0, 0.0)",0,0,0,,-2.672e-05,-2.7650000000000005e-05,-3.893e-05,"(0.0, 0.0, 0.0, 0.0, 0.0, 0.0, 0.0, 0.0, 0.0)","$VNYMR,+120.414,-003.833,-116.092,-00.2672,-00.2765,-00.3893,-00.845,+10.305,+02.745,-00.201556,+00.460083,+00.159996*67
"
1698874272.4605296,0,1698874272,432890892,GPS1_Frame,0,0,0,,-0.4114619714583451,-0.7432586106354725,0.4423824435333109,0.28733857627081044,"(0.0, 0.0, 0.0, 0.0, 0.0, 0.0, 0.0, 0.0, 0.0)",-0.295004,0.150636,0.420544,"(0.0, 0.0, 0.0, 0.0, 0.0, 0.0, 0.0, 0.0, 0.0)",-0.478,10.355,2.85,"(0.0, 0.0, 0.0, 0.0, 0.0, 0.0, 0.0, 0.0, 0.0)",0,0,0,,-2.704e-05,-2.753e-05,-3.919e-05,"(0.0, 0.0, 0.0, 0.0, 0.0, 0.0, 0.0, 0.0, 0.0)","$VNYMR,+119.819,-003.617,-116.382,-00.2704,-00.2753,-00.3919,-00.478,+10.355,+02.850,-00.295004,+00.150636,+00.420544*65
"
1698874272.5042882,0,1698874272,462087154,GPS1_Frame,0,0,0,,-0.41731136136852615,-0.7431068494384799,0.4406698941579625,0.2818749410167102,"(0.0, 0.0, 0.0, 0.0, 0.0, 0.0, 0.0, 0.0, 0.0)",-0.465766,-0.144571,0.517392,"(0.0, 0.0, 0.0, 0.0, 0.0, 0.0, 0.0, 0.0, 0.0)",0.116,9.451,1.973,"(0.0, 0.0, 0.0, 0.0, 0.0, 0.0, 0.0, 0.0, 0.0)",0,0,0,,-2.713e-05,-2.6950000000000005e-05,-3.9200000000000004e-05,"(0.0, 0.0, 0.0, 0.0, 0.0, 0.0, 0.0, 0.0, 0.0)","$VNYMR,+119.567,-002.931,-116.956,-00.2713,-00.2695,-00.3920,+00.116,+09.451,+01.973,-00.465766,-00.144571,+00.517392*6D
"
1698874272.5043018,0,1698874272,484155416,GPS1_Frame,0,0,0,,-0.4225978701530963,-0.7434870534315146,0.4383201051555017,0.27661078601215294,"(0.0, 0.0, 0.0, 0.0, 0.0, 0.0, 0.0, 0.0, 0.0)",-0.437354,0.062338,0.363646,"(0.0, 0.0, 0.0, 0.0, 0.0, 0.0, 0.0, 0.0, 0.0)",0.323,9.027,1.088,"(0.0, 0.0, 0.0, 0.0, 0.0, 0.0, 0.0, 0.0, 0.0)",0,0,0,,-2.722e-05,-2.6490000000000002e-05,-3.9460000000000005e-05,"(0.0, 0.0, 0.0, 0.0, 0.0, 0.0, 0.0, 0.0, 0.0)","$VNYMR,+119.354,-002.341,-117.588,-00.2722,-00.2649,-00.3946,+00.323,+09.027,+01.088,-00.437354,+00.062338,+00.363646*64
"
1698874272.5474753,0,1698874272,507926940,GPS1_Frame,0,0,0,,-0.4286695559918334,-0.7417479281462575,0.43446295978168553,0.27801863145162836,"(0.0, 0.0, 0.0, 0.0, 0.0, 0.0, 0.0, 0.0, 0.0)",-0.138735,0.745369,0.284265,"(0.0, 0.0, 0.0, 0.0, 0.0, 0.0, 0.0, 0.0, 0.0)",0.289,10.039,1.248,"(0.0, 0.0, 0.0, 0.0, 0.0, 0.0, 0.0, 0.0, 0.0)",0,0,0,,-2.7110000000000003e-05,-2.6150000000000002e-05,-3.959e-05,"(0.0, 0.0, 0.0, 0.0, 0.0, 0.0, 0.0, 0.0, 0.0)","$VNYMR,+118.573,-002.290,-117.922,-00.2711,-00.2615,-00.3959,+00.289,+10.039,+01.248,-00.138735,+00.745369,+00.284265*6A
"
1698874272.547504,0,1698874272,536405324,GPS1_Frame,0,0,0,,-0.43816946249802174,-0.7372913387287322,0.43008498179064075,0.28184377305154873,"(0.0, 0.0, 0.0, 0.0, 0.0, 0.0, 0.0, 0.0, 0.0)",-0.258523,0.84269,0.590442,"(0.0, 0.0, 0.0, 0.0, 0.0, 0.0, 0.0, 0.0, 0.0)",0.553,9.585,2.404,"(0.0, 0.0, 0.0, 0.0, 0.0, 0.0, 0.0, 0.0, 0.0)",0,0,0,,-2.688e-05,-2.536e-05,-4.048e-05,"(0.0, 0.0, 0.0, 0.0, 0.0, 0.0, 0.0, 0.0, 0.0)","$VNYMR,+117.225,-002.218,-118.134,-00.2688,-00.2536,-00.4048,+00.553,+09.585,+02.404,-00.258523,+00.842690,+00.590442*61
"
1698874272.5999095,0,1698874272,558007717,GPS1_Frame,0,0,0,,-0.44941228616839224,-0.7340124354287362,0.4239241321056787,0.28203310425430894,"(0.0, 0.0, 0.0, 0.0, 0.0, 0.0, 0.0, 0.0, 0.0)",-0.636214,0.607403,0.618497,"(0.0, 0.0, 0.0, 0.0, 0.0, 0.0, 0.0, 0.0, 0.0)",0.864,8.569,2.737,"(0.0, 0.0, 0.0, 0.0, 0.0, 0.0, 0.0, 0.0, 0.0)",0,0,0,,-2.6960000000000003e-05,-2.4670000000000003e-05,-4.113e-05,"(0.0, 0.0, 0.0, 0.0, 0.0, 0.0, 0.0, 0.0, 0.0)","$VNYMR,+115.926,-001.891,-118.800,-00.2696,-00.2467,-00.4113,+00.864,+08.569,+02.737,-00.636214,+00.607403,+00.618497*62
"
1698874272.5999193,0,1698874272,583079338,GPS1_Frame,0,0,0,,-0.45957232589853986,-0.7319317826126724,0.4160302323761123,0.2828214783546678,"(0.0, 0.0, 0.0, 0.0, 0.0, 0.0, 0.0, 0.0, 0.0)",-0.544982,0.838368,0.340656,"(0.0, 0.0, 0.0, 0.0, 0.0, 0.0, 0.0, 0.0, 0.0)",0.58,8.029,3.152,"(0.0, 0.0, 0.0, 0.0, 0.0, 0.0, 0.0, 0.0, 0.0)",0,0,0,,-2.6640000000000002e-05,-2.445e-05,-4.15e-05,"(0.0, 0.0, 0.0, 0.0, 0.0, 0.0, 0.0, 0.0, 0.0)","$VNYMR,+114.697,-001.812,-119.611,-00.2664,-00.2445,-00.4150,+00.580,+08.029,+03.152,-00.544982,+00.838368,+00.340656*67
"
1698874272.642495,0,1698874272,607150554,GPS1_Frame,0,0,0,,-0.4679242173105746,-0.729522133097226,0.4066597225030966,0.2889156525168958,"(0.0, 0.0, 0.0, 0.0, 0.0, 0.0, 0.0, 0.0, 0.0)",-0.406604,1.110896,0.083031,"(0.0, 0.0, 0.0, 0.0, 0.0, 0.0, 0.0, 0.0, 0.0)",0.178,8.64,4.328,"(0.0, 0.0, 0.0, 0.0, 0.0, 0.0, 0.0, 0.0, 0.0)",0,0,0,,-2.6200000000000003e-05,-2.3780000000000003e-05,-4.2130000000000005e-05,"(0.0, 0.0, 0.0, 0.0, 0.0, 0.0, 0.0, 0.0, 0.0)","$VNYMR,+113.296,-002.348,-120.181,-00.2620,-00.2378,-00.4213,+00.178,+08.640,+04.328,-00.406604,+01.110896,+00.083031*6C
"
1698874272.6439912,0,1698874272,632550001,GPS1_Frame,0,0,0,,-0.475486624223062,-0.7273179614585612,0.39679154723676074,0.2957659905502604,"(0.0, 0.0, 0.0, 0.0, 0.0, 0.0, 0.0, 0.0, 0.0)",-0.429755,1.013348,0.077,"(0.0, 0.0, 0.0, 0.0, 0.0, 0.0, 0.0, 0.0, 0.0)",-0.2,9.216,5.332,"(0.0, 0.0, 0.0, 0.0, 0.0, 0.0, 0.0, 0.0, 0.0)",0,0,0,,-2.576e-05,-2.3100000000000002e-05,-4.315e-05,"(0.0, 0.0, 0.0, 0.0, 0.0, 0.0, 0.0, 0.0, 0.0)","$VNYMR,+111.925,-003.032,-120.722,-00.2576,-00.2310,-00.4315,-00.200,+09.216,+05.332,-00.429755,+01.013348,+00.077000*69
"
1698874272.6868143,0,1698874272,668182849,GPS1_Frame,0,0,0,,-0.4821856196132307,-0.7253740681906936,0.38847169693513656,0.3006979050725547,"(0.0, 0.0, 0.0, 0.0, 0.0, 0.0, 0.0, 0.0, 0.0)",-0.381166,0.713211,0.160788,"(0.0, 0.0, 0.0, 0.0, 0.0, 0.0, 0.0, 0.0, 0.0)",-0.418,9.471,6.17,"(0.0, 0.0, 0.0, 0.0, 0.0, 0.0, 0.0, 0.0, 0.0)",0,0,0,,-2.5110000000000002e-05,-2.266e-05,-4.364e-05,"(0.0, 0.0, 0.0, 0.0, 0.0, 0.0, 0.0, 0.0, 0.0)","$VNYMR,+110.783,-003.532,-121.220,-00.2511,-00.2266,-00.4364,-00.418,+09.471,+06.170,-00.381166,+00.713211,+00.160788*69
"
1698874272.731234,0,1698874272,684569597,GPS1_Frame,0,0,0,,-0.4878691579174286,-0.7238407217903505,0.384102233848342,0.3008384419978224,"(0.0, 0.0, 0.0, 0.0, 0.0, 0.0, 0.0, 0.0, 0.0)",-0.305424,0.167861,0.342996,"(0.0, 0.0, 0.0, 0.0, 0.0, 0.0, 0.0, 0.0, 0.0)",-0.46,8.836,6.378,"(0.0, 0.0, 0.0, 0.0, 0.0, 0.0, 0.0, 0.0, 0.0)",0,0,0,,-2.489e-05,-2.221e-05,-4.313e-05,"(0.0, 0.0, 0.0, 0.0, 0.0, 0.0, 0.0, 0.0, 0.0)","$VNYMR,+110.096,-003.482,-121.661,-00.2489,-00.2221,-00.4313,-00.460,+08.836,+06.378,-00.305424,+00.167861,+00.342996*6D
"
1698874272.7312548,0,1698874272,710685491,GPS1_Frame,0,0,0,,-0.49116159090987704,-0.7231180896611022,0.3840084678465113,0.2973180395501284,"(0.0, 0.0, 0.0, 0.0, 0.0, 0.0, 0.0, 0.0, 0.0)",-0.103362,-0.218027,0.282401,"(0.0, 0.0, 0.0, 0.0, 0.0, 0.0, 0.0, 0.0, 0.0)",-0.028,8.078,6.056,"(0.0, 0.0, 0.0, 0.0, 0.0, 0.0, 0.0, 0.0, 0.0)",0,0,0,,-2.51e-05,-2.197e-05,-4.3400000000000005e-05,"(0.0, 0.0, 0.0, 0.0, 0.0, 0.0, 0.0, 0.0, 0.0)","$VNYMR,+109.950,-003.025,-121.939,-00.2510,-00.2197,-00.4340,-00.028,+08.078,+06.056,-00.103362,-00.218027,+00.282401*69
"
1698874272.7786796,0,1698874272,732692956,GPS1_Frame,0,0,0,,-0.49067471146792624,-0.7238659655074319,0.38693779659666155,0.2924645843017257,"(0.0, 0.0, 0.0, 0.0, 0.0, 0.0, 0.0, 0.0, 0.0)",-0.004867,-0.568396,0.064569,"(0.0, 0.0, 0.0, 0.0, 0.0, 0.0, 0.0, 0.0, 0.0)",0.13,8.076,5.458,"(0.0, 0.0, 0.0, 0.0, 0.0, 0.0, 0.0, 0.0, 0.0)",0,0,0,,-2.541e-05,-2.1850000000000003e-05,-4.3530000000000005e-05,"(0.0, 0.0, 0.0, 0.0, 0.0, 0.0, 0.0, 0.0, 0.0)","$VNYMR,+110.349,-002.504,-122.005,-00.2541,-00.2185,-00.4353,+00.130,+08.076,+05.458,-00.004867,-00.568396,+00.064569*69
"
1698874272.7788026,0,1698874272,768894433,GPS1_Frame,0,0,0,,-0.4872252328132376,-0.7271169126539678,0.39131315326114335,0.2842298083021368,"(0.0, 0.0, 0.0, 0.0, 0.0, 0.0, 0.0, 0.0, 0.0)",-0.14408,-0.958531,0.035824,"(0.0, 0.0, 0.0, 0.0, 0.0, 0.0, 0.0, 0.0, 0.0)",0.242,8.74,4.366,"(0.0, 0.0, 0.0, 0.0, 0.0, 0.0, 0.0, 0.0, 0.0)",0,0,0,,-2.5500000000000003e-05,-2.116e-05,-4.393e-05,"(0.0, 0.0, 0.0, 0.0, 0.0, 0.0, 0.0, 0.0, 0.0)","$VNYMR,+111.336,-001.835,-122.171,-00.2550,-00.2116,-00.4393,+00.242,+08.740,+04.366,-00.144080,-00.958531,+00.035824*67
"
1698874272.825454,0,1698874272,787403583,GPS1_Frame,0,0,0,,-0.4836380857099883,-0.7308340492593117,0.39586386829261205,0.27434939816669096,"(0.0, 0.0, 0.0, 0.0, 0.0, 0.0, 0.0, 0.0, 0.0)",-0.155571,-0.888054,0.064448,"(0.0, 0.0, 0.0, 0.0, 0.0, 0.0, 0.0, 0.0, 0.0)",0.159,9.053,3.373,"(0.0, 0.0, 0.0, 0.0, 0.0, 0.0, 0.0, 0.0, 0.0)",0,0,0,,-2.583e-05,-2.173e-05,-4.342e-05,"(0.0, 0.0, 0.0, 0.0, 0.0, 0.0, 0.0, 0.0, 0.0)","$VNYMR,+112.440,-001.037,-122.421,-00.2583,-00.2173,-00.4342,+00.159,+09.053,+03.373,-00.155571,-00.888054,+00.064448*64
"
1698874272.825482,0,1698874272,808220863,GPS1_Frame,0,0,0,,-0.4816808142539068,-0.7328306770775004,0.3997379189159329,0.2667440497829048,"(0.0, 0.0, 0.0, 0.0, 0.0, 0.0, 0.0, 0.0, 0.0)",-0.040427,-0.564884,0.199774,"(0.0, 0.0, 0.0, 0.0, 0.0, 0.0, 0.0, 0.0, 0.0)",0.39,9.398,3.228,"(0.0, 0.0, 0.0, 0.0, 0.0, 0.0, 0.0, 0.0, 0.0)",0,0,0,,-2.6040000000000005e-05,-2.1490000000000003e-05,-4.305e-05,"(0.0, 0.0, 0.0, 0.0, 0.0, 0.0, 0.0, 0.0, 0.0)","$VNYMR,+113.183,-000.336,-122.556,-00.2604,-00.2149,-00.4305,+00.390,+09.398,+03.228,-00.040427,-00.564884,+00.199774*65
"
1698874272.8674889,0,1698874272,833419799,GPS1_Frame,0,0,0,,-0.4820572589738757,-0.73237729955539,0.4034781425066685,0.261628894975148,"(0.0, 0.0, 0.0, 0.0, 0.0, 0.0, 0.0, 0.0, 0.0)",0.0932,-0.347117,0.328333,"(0.0, 0.0, 0.0, 0.0, 0.0, 0.0, 0.0, 0.0, 0.0)",0.547,9.039,3.576,"(0.0, 0.0, 0.0, 0.0, 0.0, 0.0, 0.0, 0.0, 0.0)",0,0,0,,-2.655e-05,-2.1020000000000002e-05,-4.282000000000001e-05,"(0.0, 0.0, 0.0, 0.0, 0.0, 0.0, 0.0, 0.0, 0.0)","$VNYMR,+113.475,+000.331,-122.515,-00.2655,-00.2102,-00.4282,+00.547,+09.039,+03.576,+00.093200,-00.347117,+00.328333*62
"
1698874272.8720431,0,1698874272,861865043,GPS1_Frame,0,0,0,,-0.4825212622644346,-0.7309958232396658,0.4079681671297673,0.25764377050042986,"(0.0, 0.0, 0.0, 0.0, 0.0, 0.0, 0.0, 0.0, 0.0)",0.211136,-0.400579,0.284756,"(0.0, 0.0, 0.0, 0.0, 0.0, 0.0, 0.0, 0.0, 0.0)",0.727,8.837,4.007,"(0.0, 0.0, 0.0, 0.0, 0.0, 0.0, 0.0, 0.0, 0.0)",0,0,0,,-2.6450000000000003e-05,-2.114e-05,-4.3190000000000005e-05,"(0.0, 0.0, 0.0, 0.0, 0.0, 0.0, 0.0, 0.0, 0.0)","$VNYMR,+113.681,+000.976,-122.306,-00.2645,-00.2114,-00.4319,+00.727,+08.837,+04.007,+00.211136,-00.400579,+00.284756*62
"
1698874272.9190311,0,1698874272,882311344,GPS1_Frame,0,0,0,,-0.481769077932429,-0.729201601181038,0.4148444492262532,0.2531159088823025,"(0.0, 0.0, 0.0, 0.0, 0.0, 0.0, 0.0, 0.0, 0.0)",0.328408,-0.616305,0.352361,"(0.0, 0.0, 0.0, 0.0, 0.0, 0.0, 0.0, 0.0, 0.0)",0.726,9.026,3.863,"(0.0, 0.0, 0.0, 0.0, 0.0, 0.0, 0.0, 0.0, 0.0)",0,0,0,,-2.6660000000000002e-05,-2.113e-05,-4.282000000000001e-05,"(0.0, 0.0, 0.0, 0.0, 0.0, 0.0, 0.0, 0.0, 0.0)","$VNYMR,+114.070,+001.752,-121.865,-00.2666,-00.2113,-00.4282,+00.726,+09.026,+03.863,+00.328408,-00.616305,+00.352361*68
"
1698874272.91906,0,1698874272,908809423,GPS1_Frame,0,0,0,,-0.4812857481024372,-0.7270307226033996,0.42342798661757386,0.2459656423430794,"(0.0, 0.0, 0.0, 0.0, 0.0, 0.0, 0.0, 0.0, 0.0)",0.253582,-0.767192,0.538164,"(0.0, 0.0, 0.0, 0.0, 0.0, 0.0, 0.0, 0.0, 0.0)",0.972,8.684,3.232,"(0.0, 0.0, 0.0, 0.0, 0.0, 0.0, 0.0, 0.0, 0.0)",0,0,0,,-2.709e-05,-2.112e-05,-4.194e-05,"(0.0, 0.0, 0.0, 0.0, 0.0, 0.0, 0.0, 0.0, 0.0)","$VNYMR,+114.598,+002.862,-121.404,-00.2709,-00.2112,-00.4194,+00.972,+08.684,+03.232,+00.253582,-00.767192,+00.538164*64
"
1698874272.962854,0,1698874272,937640190,GPS1_Frame,0,0,0,,-0.48164129007750395,-0.7255044799913312,0.43095414042097596,0.2365236691306046,"(0.0, 0.0, 0.0, 0.0, 0.0, 0.0, 0.0, 0.0, 0.0)",0.053973,-0.779847,0.543413,"(0.0, 0.0, 0.0, 0.0, 0.0, 0.0, 0.0, 0.0, 0.0)",1.539,8.16,2.852,"(0.0, 0.0, 0.0, 0.0, 0.0, 0.0, 0.0, 0.0, 0.0)",0,0,0,,-2.7930000000000002e-05,-2.122e-05,-4.2220000000000006e-05,"(0.0, 0.0, 0.0, 0.0, 0.0, 0.0, 0.0, 0.0, 0.0)","$VNYMR,+115.167,+004.125,-121.199,-00.2793,-00.2122,-00.4222,+01.539,+08.160,+02.852,+00.053973,-00.779847,+00.543413*67
"
1698874272.9657423,0,1698874272,958047389,GPS1_Frame,0,0,0,,-0.48229794679502647,-0.7242450718812313,0.43685487347919855,0.2280692567851376,"(0.0, 0.0, 0.0, 0.0, 0.0, 0.0, 0.0, 0.0, 0.0)",0.049059,-0.588873,0.435337,"(0.0, 0.0, 0.0, 0.0, 0.0, 0.0, 0.0, 0.0, 0.0)",1.811,7.79,2.577,"(0.0, 0.0, 0.0, 0.0, 0.0, 0.0, 0.0, 0.0, 0.0)",0,0,0,,-2.8139999999999998e-05,-2.0870000000000002e-05,-4.248e-05,"(0.0, 0.0, 0.0, 0.0, 0.0, 0.0, 0.0, 0.0, 0.0)","$VNYMR,+115.629,+005.223,-121.093,-00.2814,-00.2087,-00.4248,+01.811,+07.790,+02.577,+00.049059,-00.588873,+00.435337*6C
"
1698874273.0065129,0,1698874272,982641696,GPS1_Frame,0,0,0,,-0.48262807058950374,-0.7231915478478496,0.4408186863810161,0.22303142455223618,"(0.0, 0.0, 0.0, 0.0, 0.0, 0.0, 0.0, 0.0, 0.0)",0.078431,-0.286377,0.218706,"(0.0, 0.0, 0.0, 0.0, 0.0, 0.0, 0.0, 0.0, 0.0)",1.902,7.943,2.627,"(0.0, 0.0, 0.0, 0.0, 0.0, 0.0, 0.0, 0.0, 0.0)",0,0,0,,-2.8349999999999998e-05,-2.1090000000000003e-05,-4.198e-05,"(0.0, 0.0, 0.0, 0.0, 0.0, 0.0, 0.0, 0.0, 0.0)","$VNYMR,+115.911,+005.907,-120.971,-00.2835,-00.2109,-00.4198,+01.902,+07.943,+02.627,+00.078431,-00.286377,+00.218706*6F
"
1698874273.0509126,0,1698874273,8417606,GPS1_Frame,0,0,0,,-0.4828608866364557,-0.7225415158936979,0.4427185618609632,0.22086058260915112,"(0.0, 0.0, 0.0, 0.0, 0.0, 0.0, 0.0, 0.0, 0.0)",0.032454,-0.104713,0.123836,"(0.0, 0.0, 0.0, 0.0, 0.0, 0.0, 0.0, 0.0, 0.0)",1.933,8.634,2.899,"(0.0, 0.0, 0.0, 0.0, 0.0, 0.0, 0.0, 0.0, 0.0)",0,0,0,,-2.834e-05,-2.0640000000000002e-05,-4.173e-05,"(0.0, 0.0, 0.0, 0.0, 0.0, 0.0, 0.0, 0.0, 0.0)","$VNYMR,+116.022,+006.222,-120.895,-00.2834,-00.2064,-00.4173,+01.933,+08.634,+02.899,+00.032454,-00.104713,+00.123836*63
"
1698874273.0509236,0,1698874273,35270929,GPS1_Frame,0,0,0,,-0.4839426530478999,-0.7216698529975023,0.4436047133693585,0.2195609029677479,"(0.0, 0.0, 0.0, 0.0, 0.0, 0.0, 0.0, 0.0, 0.0)",-0.007613,-0.055192,0.190697,"(0.0, 0.0, 0.0, 0.0, 0.0, 0.0, 0.0, 0.0, 0.0)",1.926,8.946,3.247,"(0.0, 0.0, 0.0, 0.0, 0.0, 0.0, 0.0, 0.0, 0.0)",0,0,0,,-2.8460000000000002e-05,-2.1090000000000003e-05,-4.16e-05,"(0.0, 0.0, 0.0, 0.0, 0.0, 0.0, 0.0, 0.0, 0.0)","$VNYMR,+115.974,+006.457,-120.882,-00.2846,-00.2109,-00.4160,+01.926,+08.946,+03.247,-00.007613,-00.055192,+00.190697*65
"
1698874273.0985248,0,1698874273,57848691,GPS1_Frame,0,0,0,,-0.4853729049394324,-0.7209230755429673,0.4444311604589425,0.21717275591897725,"(0.0, 0.0, 0.0, 0.0, 0.0, 0.0, 0.0, 0.0, 0.0)",-0.065009,-0.125017,0.182475,"(0.0, 0.0, 0.0, 0.0, 0.0, 0.0, 0.0, 0.0, 0.0)",1.867,8.464,3.265,"(0.0, 0.0, 0.0, 0.0, 0.0, 0.0, 0.0, 0.0, 0.0)",0,0,0,,-2.8760000000000002e-05,-2.0510000000000002e-05,-4.2e-05,"(0.0, 0.0, 0.0, 0.0, 0.0, 0.0, 0.0, 0.0, 0.0)","$VNYMR,+115.949,+006.794,-120.947,-00.2876,-00.2051,-00.4200,+01.867,+08.464,+03.265,-00.065009,-00.125017,+00.182475*62
"
1698874273.0985436,0,1698874273,86970567,GPS1_Frame,0,0,0,,-0.48600181378849555,-0.7209068316303116,0.4448104618096718,0.21503309086674205,"(0.0, 0.0, 0.0, 0.0, 0.0, 0.0, 0.0, 0.0, 0.0)",-0.065931,-0.093658,0.085257,"(0.0, 0.0, 0.0, 0.0, 0.0, 0.0, 0.0, 0.0, 0.0)",1.98,8.739,3.29,"(0.0, 0.0, 0.0, 0.0, 0.0, 0.0, 0.0, 0.0, 0.0)",0,0,0,,-2.8749999999999997e-05,-1.994e-05,-4.226e-05,"(0.0, 0.0, 0.0, 0.0, 0.0, 0.0, 0.0, 0.0, 0.0)","$VNYMR,+116.003,+007.026,-121.043,-00.2875,-00.1994,-00.4226,+01.980,+08.739,+03.290,-00.065931,-00.093658,+00.085257*6B
"
1698874273.1435432,0,1698874273,117003202,GPS1_Frame,0,0,0,,-0.48636682240575846,-0.7207665392799167,0.44519122000835376,0.21388709064562816,"(0.0, 0.0, 0.0, 0.0, 0.0, 0.0, 0.0, 0.0, 0.0)",-0.013363,-0.081346,0.088062,"(0.0, 0.0, 0.0, 0.0, 0.0, 0.0, 0.0, 0.0, 0.0)",2.123,9.152,3.538,"(0.0, 0.0, 0.0, 0.0, 0.0, 0.0, 0.0, 0.0, 0.0)",0,0,0,,-2.865e-05,-2.006e-05,-4.1880000000000006e-05,"(0.0, 0.0, 0.0, 0.0, 0.0, 0.0, 0.0, 0.0, 0.0)","$VNYMR,+116.029,+007.165,-121.074,-00.2865,-00.2006,-00.4188,+02.123,+09.152,+03.538,-00.013363,-00.081346,+00.088062*67
"
1698874273.1470697,0,1698874273,134369373,GPS1_Frame,0,0,0,,-0.48668055032942986,-0.7210805327901717,0.44610202580926805,0.2101853699260551,"(0.0, 0.0, 0.0, 0.0, 0.0, 0.0, 0.0, 0.0, 0.0)",-0.196924,-0.363258,0.180395,"(0.0, 0.0, 0.0, 0.0, 0.0, 0.0, 0.0, 0.0, 0.0)",2.339,8.882,3.481,"(0.0, 0.0, 0.0, 0.0, 0.0, 0.0, 0.0, 0.0, 0.0)",0,0,0,,-2.8749999999999997e-05,-2.017e-05,-4.175e-05,"(0.0, 0.0, 0.0, 0.0, 0.0, 0.0, 0.0, 0.0, 0.0)","$VNYMR,+116.215,+007.533,-121.205,-00.2875,-00.2017,-00.4175,+02.339,+08.882,+03.481,-00.196924,-00.363258,+00.180395*63
"
1698874273.1869366,0,1698874273,159044504,GPS1_Frame,0,0,0,,-0.486550782745588,-0.7224263343457957,0.44665919271553367,0.20460716706914256,"(0.0, 0.0, 0.0, 0.0, 0.0, 0.0, 0.0, 0.0, 0.0)",-0.221352,-0.29751,0.098694,"(0.0, 0.0, 0.0, 0.0, 0.0, 0.0, 0.0, 0.0, 0.0)",2.332,8.607,2.933,"(0.0, 0.0, 0.0, 0.0, 0.0, 0.0, 0.0, 0.0, 0.0)",0,0,0,,-2.9060000000000003e-05,-1.993e-05,-4.227000000000001e-05,"(0.0, 0.0, 0.0, 0.0, 0.0, 0.0, 0.0, 0.0, 0.0)","$VNYMR,+116.561,+007.991,-121.489,-00.2906,-00.1993,-00.4227,+02.332,+08.607,+02.933,-00.221352,-00.297510,+00.098694*62
"
1698874273.2346325,0,1698874273,183402299,GPS1_Frame,0,0,0,,-0.48678395343103004,-0.7232811066396257,0.4460728255276307,0.20229893174708347,"(0.0, 0.0, 0.0, 0.0, 0.0, 0.0, 0.0, 0.0, 0.0)",-0.084474,0.020393,0.043314,"(0.0, 0.0, 0.0, 0.0, 0.0, 0.0, 0.0, 0.0, 0.0)",2.253,9.123,3.067,"(0.0, 0.0, 0.0, 0.0, 0.0, 0.0, 0.0, 0.0, 0.0)",0,0,0,,-2.9380000000000003e-05,-1.992e-05,-4.215e-05,"(0.0, 0.0, 0.0, 0.0, 0.0, 0.0, 0.0, 0.0, 0.0)","$VNYMR,+116.664,+008.143,-121.701,-00.2938,-00.1992,-00.4215,+02.253,+09.123,+03.067,-00.084474,+00.020393,+00.043314*6D
"
1698874273.2348056,0,1698874273,215139865,GPS1_Frame,0,0,0,,-0.4880056637902328,-0.7225330663506642,0.44560220075648427,0.20306432187742685,"(0.0, 0.0, 0.0, 0.0, 0.0, 0.0, 0.0, 0.0, 0.0)",0.025378,0.108766,0.084426,"(0.0, 0.0, 0.0, 0.0, 0.0, 0.0, 0.0, 0.0, 0.0)",2.061,9.441,3.948,"(0.0, 0.0, 0.0, 0.0, 0.0, 0.0, 0.0, 0.0, 0.0)",0,0,0,,-2.8960000000000004e-05,-2.0050000000000003e-05,-4.227000000000001e-05,"(0.0, 0.0, 0.0, 0.0, 0.0, 0.0, 0.0, 0.0, 0.0)","$VNYMR,+116.469,+008.133,-121.715,-00.2896,-00.2005,-00.4227,+02.061,+09.441,+03.948,+00.025378,+00.108766,+00.084426*68
"
1698874273.2823584,0,1698874273,234584569,GPS1_Frame,0,0,0,,-0.4888903636689464,-0.7219509377067407,0.44602556650058883,0.20207486207797362,"(0.0, 0.0, 0.0, 0.0, 0.0, 0.0, 0.0, 0.0, 0.0)",-0.051614,-0.167645,0.141356,"(0.0, 0.0, 0.0, 0.0, 0.0, 0.0, 0.0, 0.0, 0.0)",1.877,9.669,4.316,"(0.0, 0.0, 0.0, 0.0, 0.0, 0.0, 0.0, 0.0, 0.0)",0,0,0,,-2.8960000000000004e-05,-2.0050000000000003e-05,-4.201e-05,"(0.0, 0.0, 0.0, 0.0, 0.0, 0.0, 0.0, 0.0, 0.0)","$VNYMR,+116.421,+008.299,-121.733,-00.2896,-00.2005,-00.4201,+01.877,+09.669,+04.316,-00.051614,-00.167645,+00.141356*68
"
1698874273.2845855,0,1698874273,260123968,GPS1_Frame,0,0,0,,-0.489030036079193,-0.7221288444396857,0.44825811268477,0.1960719772248845,"(0.0, 0.0, 0.0, 0.0, 0.0, 0.0, 0.0, 0.0, 0.0)",-0.156888,-0.601798,0.325176,"(0.0, 0.0, 0.0, 0.0, 0.0, 0.0, 0.0, 0.0, 0.0)",2.141,9.565,3.959,"(0.0, 0.0, 0.0, 0.0, 0.0, 0.0, 0.0, 0.0, 0.0)",0,0,0,,-2.9380000000000003e-05,-1.969e-05,-4.2159999999999996e-05,"(0.0, 0.0, 0.0, 0.0, 0.0, 0.0, 0.0, 0.0, 0.0)","$VNYMR,+116.761,+008.931,-121.846,-00.2938,-00.1969,-00.4216,+02.141,+09.565,+03.959,-00.156888,-00.601798,+00.325176*65
"
1698874273.3266869,0,1698874273,286074161,GPS1_Frame,0,0,0,,-0.48881785020897967,-0.7227125047047505,0.4518542302993978,0.1859341265636735,"(0.0, 0.0, 0.0, 0.0, 0.0, 0.0, 0.0, 0.0, 0.0)",-0.214586,-0.79628,0.39578,"(0.0, 0.0, 0.0, 0.0, 0.0, 0.0, 0.0, 0.0, 0.0)",2.509,8.795,3.349,"(0.0, 0.0, 0.0, 0.0, 0.0, 0.0, 0.0, 0.0, 0.0)",0,0,0,,-2.9690000000000002e-05,-1.946e-05,-4.2170000000000005e-05,"(0.0, 0.0, 0.0, 0.0, 0.0, 0.0, 0.0, 0.0, 0.0)","$VNYMR,+117.381,+009.962,-122.040,-00.2969,-00.1946,-00.4217,+02.509,+08.795,+03.349,-00.214586,-00.796280,+00.395780*62
"
1698874273.374964,0,1698874273,312181711,GPS1_Frame,0,0,0,,-0.4878913333198601,-0.7236161127651226,0.455358355228453,0.17604129214959946,"(0.0, 0.0, 0.0, 0.0, 0.0, 0.0, 0.0, 0.0, 0.0)",-0.201086,-0.713566,0.287591,"(0.0, 0.0, 0.0, 0.0, 0.0, 0.0, 0.0, 0.0, 0.0)",2.716,8.737,2.922,"(0.0, 0.0, 0.0, 0.0, 0.0, 0.0, 0.0, 0.0, 0.0)",0,0,0,,-2.979e-05,-1.911e-05,-4.1920000000000005e-05,"(0.0, 0.0, 0.0, 0.0, 0.0, 0.0, 0.0, 0.0, 0.0)","$VNYMR,+118.065,+010.927,-122.207,-00.2979,-00.1911,-00.4192,+02.716,+08.737,+02.922,-00.201086,-00.713566,+00.287591*60
"
1698874273.3749914,0,1698874273,340799570,GPS1_Frame,0,0,0,,-0.48731461206017296,-0.7240161143829679,0.45828489481491486,0.168226306417619,"(0.0, 0.0, 0.0, 0.0, 0.0, 0.0, 0.0, 0.0, 0.0)",-0.100889,-0.505679,0.283515,"(0.0, 0.0, 0.0, 0.0, 0.0, 0.0, 0.0, 0.0, 0.0)",2.78,8.934,2.938,"(0.0, 0.0, 0.0, 0.0, 0.0, 0.0, 0.0, 0.0, 0.0)",0,0,0,,-3.0520000000000006e-05,-1.8750000000000002e-05,-4.169e-05,"(0.0, 0.0, 0.0, 0.0, 0.0, 0.0, 0.0, 0.0, 0.0)","$VNYMR,+118.582,+011.716,-122.309,-00.3052,-00.1875,-00.4169,+02.780,+08.934,+02.938,-00.100889,-00.505679,+00.283515*64
"
1698874273.374994,0,1698874273,363549947,GPS1_Frame,0,0,0,,-0.4880818124982373,-0.7233508440487199,0.460821105809041,0.16181350117766036,"(0.0, 0.0, 0.0, 0.0, 0.0, 0.0, 0.0, 0.0, 0.0)",-0.076649,-0.398922,0.362719,"(0.0, 0.0, 0.0, 0.0, 0.0, 0.0, 0.0, 0.0, 0.0)",2.965,8.67,3.215,"(0.0, 0.0, 0.0, 0.0, 0.0, 0.0, 0.0, 0.0, 0.0)",0,0,0,,-3.0940000000000005e-05,-1.8740000000000004e-05,-4.145e-05,"(0.0, 0.0, 0.0, 0.0, 0.0, 0.0, 0.0, 0.0, 0.0)","$VNYMR,+118.852,+012.459,-122.380,-00.3094,-00.1874,-00.4145,+02.965,+08.670,+03.215,-00.076649,-00.398922,+00.362719*65
"
1698874273.4174335,0,1698874273,383355140,GPS1_Frame,0,0,0,,-0.4892197978598911,-0.7225872993012302,0.4631592321027749,0.15496809345297313,"(0.0, 0.0, 0.0, 0.0, 0.0, 0.0, 0.0, 0.0, 0.0)",-0.13856,-0.466418,0.370777,"(0.0, 0.0, 0.0, 0.0, 0.0, 0.0, 0.0, 0.0, 0.0)",3.304,8.307,3.249,"(0.0, 0.0, 0.0, 0.0, 0.0, 0.0, 0.0, 0.0, 0.0)",0,0,0,,-3.0940000000000005e-05,-1.886e-05,-4.094e-05,"(0.0, 0.0, 0.0, 0.0, 0.0, 0.0, 0.0, 0.0, 0.0)","$VNYMR,+119.094,+013.251,-122.496,-00.3094,-00.1886,-00.4094,+03.304,+08.307,+03.249,-00.138560,-00.466418,+00.370777*63
"
1698874273.4275706,0,1698874273,407065153,GPS1_Frame,0,0,0,,-0.48984749613604694,-0.7222338614756828,0.4655107945351663,0.14740210323603925,"(0.0, 0.0, 0.0, 0.0, 0.0, 0.0, 0.0, 0.0, 0.0)",-0.187623,-0.523251,0.352943,"(0.0, 0.0, 0.0, 0.0, 0.0, 0.0, 0.0, 0.0, 0.0)",3.468,8.131,3.086,"(0.0, 0.0, 0.0, 0.0, 0.0, 0.0, 0.0, 0.0, 0.0)",0,0,0,,-3.125e-05,-1.85e-05,-4.121000000000001e-05,"(0.0, 0.0, 0.0, 0.0, 0.0, 0.0, 0.0, 0.0, 0.0)","$VNYMR,+119.432,+014.072,-122.638,-00.3125,-00.1850,-00.4121,+03.468,+08.131,+03.086,-00.187623,-00.523251,+00.352943*6F
"
1698874273.4745886,0,1698874273,432641983,GPS1_Frame,0,0,0,,-0.4899325302893952,-0.7222042501223032,0.4676145524978637,0.14044132996285436,"(0.0, 0.0, 0.0, 0.0, 0.0, 0.0, 0.0, 0.0, 0.0)",-0.133842,-0.442797,0.236331,"(0.0, 0.0, 0.0, 0.0, 0.0, 0.0, 0.0, 0.0, 0.0)",3.37,8.045,3.027,"(0.0, 0.0, 0.0, 0.0, 0.0, 0.0, 0.0, 0.0, 0.0)",0,0,0,,-3.156e-05,-1.827e-05,-4.097e-05,"(0.0, 0.0, 0.0, 0.0, 0.0, 0.0, 0.0, 0.0, 0.0)","$VNYMR,+119.799,+014.794,-122.763,-00.3156,-00.1827,-00.4097,+03.370,+08.045,+03.027,-00.133842,-00.442797,+00.236331*61
"
1698874273.4747734,0,1698874273,463746786,GPS1_Frame,0,0,0,,-0.48966992967923173,-0.7224328066577257,0.4690030347674776,0.13546347556250543,"(0.0, 0.0, 0.0, 0.0, 0.0, 0.0, 0.0, 0.0, 0.0)",-0.118707,-0.274423,0.152358,"(0.0, 0.0, 0.0, 0.0, 0.0, 0.0, 0.0, 0.0, 0.0)",3.309,8.434,2.95,"(0.0, 0.0, 0.0, 0.0, 0.0, 0.0, 0.0, 0.0, 0.0)",0,0,0,,-3.1580000000000006e-05,-1.8840000000000003e-05,-4.084e-05,"(0.0, 0.0, 0.0, 0.0, 0.0, 0.0, 0.0, 0.0, 0.0)","$VNYMR,+120.098,+015.283,-122.858,-00.3158,-00.1884,-00.4084,+03.309,+08.434,+02.950,-00.118707,-00.274423,+00.152358*6F
"
1698874273.5208983,0,1698874273,483244657,GPS1_Frame,0,0,0,,-0.49036876256448675,-0.7217386749187669,0.47000597204788297,0.13313958114250257,"(0.0, 0.0, 0.0, 0.0, 0.0, 0.0, 0.0, 0.0, 0.0)",0.031955,-0.083197,0.180947,"(0.0, 0.0, 0.0, 0.0, 0.0, 0.0, 0.0, 0.0, 0.0)",3.245,8.566,3.265,"(0.0, 0.0, 0.0, 0.0, 0.0, 0.0, 0.0, 0.0, 0.0)",0,0,0,,-3.188e-05,-1.826e-05,-4.1490000000000004e-05,"(0.0, 0.0, 0.0, 0.0, 0.0, 0.0, 0.0, 0.0, 0.0)","$VNYMR,+120.139,+015.591,-122.868,-00.3188,-00.1826,-00.4149,+03.245,+08.566,+03.265,+00.031955,-00.083197,+00.180947*6A
"
1698874273.522053,0,1698874273,507897138,GPS1_Frame,0,0,0,,-0.49153119444135956,-0.7205075404143997,0.47128640375865477,0.1309774588594424,"(0.0, 0.0, 0.0, 0.0, 0.0, 0.0, 0.0, 0.0, 0.0)",0.009426,-0.153433,0.220547,"(0.0, 0.0, 0.0, 0.0, 0.0, 0.0, 0.0, 0.0, 0.0)",3.405,8.334,3.454,"(0.0, 0.0, 0.0, 0.0, 0.0, 0.0, 0.0, 0.0, 0.0)",0,0,0,,-3.1990000000000004e-05,-1.86e-05,-4.123e-05,"(0.0, 0.0, 0.0, 0.0, 0.0, 0.0, 0.0, 0.0, 0.0)","$VNYMR,+120.117,+015.936,-122.841,-00.3199,-00.1860,-00.4123,+03.405,+08.334,+03.454,+00.009426,-00.153433,+00.220547*65
"
1698874273.566823,0,1698874273,533919572,GPS1_Frame,0,0,0,,-0.49213433273592117,-0.7196390942326005,0.4729562568250613,0.12741958925015578,"(0.0, 0.0, 0.0, 0.0, 0.0, 0.0, 0.0, 0.0, 0.0)",-0.043653,-0.30813,0.212932,"(0.0, 0.0, 0.0, 0.0, 0.0, 0.0, 0.0, 0.0, 0.0)",3.689,8.093,3.445,"(0.0, 0.0, 0.0, 0.0, 0.0, 0.0, 0.0, 0.0, 0.0)",0,0,0,,-3.218e-05,-1.7680000000000004e-05,-4.087e-05,"(0.0, 0.0, 0.0, 0.0, 0.0, 0.0, 0.0, 0.0, 0.0)","$VNYMR,+120.238,+016.387,-122.832,-00.3218,-00.1768,-00.4087,+03.689,+08.093,+03.445,-00.043653,-00.308130,+00.212932*6B
"
1698874273.6107502,0,1698874273,566980600,GPS1_Frame,0,0,0,,-0.4914011001985805,-0.7196335742938345,0.4751608273868121,0.12196173822057824,"(0.0, 0.0, 0.0, 0.0, 0.0, 0.0, 0.0, 0.0, 0.0)",-0.114939,-0.512234,0.17283,"(0.0, 0.0, 0.0, 0.0, 0.0, 0.0, 0.0, 0.0, 0.0)",3.923,7.957,3.127,"(0.0, 0.0, 0.0, 0.0, 0.0, 0.0, 0.0, 0.0, 0.0)",0,0,0,,-3.231e-05,-1.8360000000000004e-05,-4.048e-05,"(0.0, 0.0, 0.0, 0.0, 0.0, 0.0, 0.0, 0.0, 0.0)","$VNYMR,+120.625,+016.945,-122.836,-00.3231,-00.1836,-00.4048,+03.923,+07.957,+03.127,-00.114939,-00.512234,+00.172830*63
"
1698874273.6107676,0,1698874273,585977077,GPS1_Frame,0,0,0,,-0.48952475091913716,-0.7204898309867371,0.4774138296872568,0.11548141368032644,"(0.0, 0.0, 0.0, 0.0, 0.0, 0.0, 0.0, 0.0, 0.0)",-0.140425,-0.506501,0.075055,"(0.0, 0.0, 0.0, 0.0, 0.0, 0.0, 0.0, 0.0, 0.0)",3.873,7.819,2.483,"(0.0, 0.0, 0.0, 0.0, 0.0, 0.0, 0.0, 0.0, 0.0)",0,0,0,,-3.231e-05,-1.8360000000000004e-05,-4.0100000000000006e-05,"(0.0, 0.0, 0.0, 0.0, 0.0, 0.0, 0.0, 0.0, 0.0)","$VNYMR,+121.204,+017.518,-122.864,-00.3231,-00.1836,-00.4010,+03.873,+07.819,+02.483,-00.140425,-00.506501,+00.075055*67
"
1698874273.654831,0,1698874273,608890295,GPS1_Frame,0,0,0,,-0.4876923789253246,-0.7215331835988273,0.4786634392803309,0.11147789197963695,"(0.0, 0.0, 0.0, 0.0, 0.0, 0.0, 0.0, 0.0, 0.0)",-0.073513,-0.239341,-0.009757,"(0.0, 0.0, 0.0, 0.0, 0.0, 0.0, 0.0, 0.0, 0.0)",3.834,8.224,2.302,"(0.0, 0.0, 0.0, 0.0, 0.0, 0.0, 0.0, 0.0, 0.0)",0,0,0,,-3.261e-05,-1.8010000000000002e-05,-4.037e-05,"(0.0, 0.0, 0.0, 0.0, 0.0, 0.0, 0.0, 0.0, 0.0)","$VNYMR,+121.643,+017.819,-122.885,-00.3261,-00.1801,-00.4037,+03.834,+08.224,+02.302,-00.073513,-00.239341,-00.009757*65
"
1698874273.654842,0,1698874273,635710954,GPS1_Frame,0,0,0,,-0.48717101852130057,-0.7218030011710584,0.47891550561434443,0.11092684389059558,"(0.0, 0.0, 0.0, 0.0, 0.0, 0.0, 0.0, 0.0, 0.0)",0.02832,0.042113,-0.014435,"(0.0, 0.0, 0.0, 0.0, 0.0, 0.0, 0.0, 0.0, 0.0)",3.606,8.613,2.519,"(0.0, 0.0, 0.0, 0.0, 0.0, 0.0, 0.0, 0.0, 0.0)",0,0,0,,-3.261e-05,-1.8010000000000002e-05,-4.075e-05,"(0.0, 0.0, 0.0, 0.0, 0.0, 0.0, 0.0, 0.0, 0.0)","$VNYMR,+121.738,+017.848,-122.874,-00.3261,-00.1801,-00.4075,+03.606,+08.613,+02.519,+00.028320,+00.042113,-00.014435*6F
"
1698874273.6988537,0,1698874273,662072420,GPS1_Frame,0,0,0,,-0.48783301239815546,-0.7213570843682425,0.47873072511511616,0.11171303270900905,"(0.0, 0.0, 0.0, 0.0, 0.0, 0.0, 0.0, 0.0, 0.0)",0.010151,0.068194,0.05824,"(0.0, 0.0, 0.0, 0.0, 0.0, 0.0, 0.0, 0.0, 0.0)",3.558,8.733,2.951,"(0.0, 0.0, 0.0, 0.0, 0.0, 0.0, 0.0, 0.0, 0.0)",0,0,0,,-3.261e-05,-1.8010000000000002e-05,-4.05e-05,"(0.0, 0.0, 0.0, 0.0, 0.0, 0.0, 0.0, 0.0, 0.0)","$VNYMR,+121.615,+017.813,-122.867,-00.3261,-00.1801,-00.4050,+03.558,+08.733,+02.951,+00.010151,+00.068194,+00.058240*63
"
1698874273.7001007,0,1698874273,683425188,GPS1_Frame,0,0,0,,-0.4887369638514897,-0.720953339513868,0.47852564477070064,0.11124598736949763,"(0.0, 0.0, 0.0, 0.0, 0.0, 0.0, 0.0, 0.0, 0.0)",-0.04556,-0.021474,0.101948,"(0.0, 0.0, 0.0, 0.0, 0.0, 0.0, 0.0, 0.0, 0.0)",3.602,8.632,3.029,"(0.0, 0.0, 0.0, 0.0, 0.0, 0.0, 0.0, 0.0, 0.0)",0,0,0,,-3.2500000000000004e-05,-1.79e-05,-4.087e-05,"(0.0, 0.0, 0.0, 0.0, 0.0, 0.0, 0.0, 0.0, 0.0)","$VNYMR,+121.522,+017.899,-122.928,-00.3250,-00.1790,-00.4087,+03.602,+08.632,+03.029,-00.045560,-00.021474,+00.101948*66
"
1698874273.742602,0,1698874273,708673715,GPS1_Frame,0,0,0,,-0.48957443526723154,-0.7206327704952701,0.4784937024457606,0.1097682064207608,"(0.0, 0.0, 0.0, 0.0, 0.0, 0.0, 0.0, 0.0, 0.0)",-0.05876,-0.05087,0.119978,"(0.0, 0.0, 0.0, 0.0, 0.0, 0.0, 0.0, 0.0, 0.0)",3.815,8.417,2.908,"(0.0, 0.0, 0.0, 0.0, 0.0, 0.0, 0.0, 0.0, 0.0)",0,0,0,,-3.269000000000001e-05,-1.698e-05,-4.0770000000000004e-05,"(0.0, 0.0, 0.0, 0.0, 0.0, 0.0, 0.0, 0.0, 0.0)","$VNYMR,+121.488,+018.078,-123.017,-00.3269,-00.1698,-00.4077,+03.815,+08.417,+02.908,-00.058760,-00.050870,+00.119978*6B
"
1698874273.78757,0,1698874273,738507032,GPS1_Frame,0,0,0,,-0.4904846563349625,-0.7203157368609698,0.47817825409897935,0.10915859305278588,"(0.0, 0.0, 0.0, 0.0, 0.0, 0.0, 0.0, 0.0, 0.0)",-0.024602,0.071938,0.066981,"(0.0, 0.0, 0.0, 0.0, 0.0, 0.0, 0.0, 0.0, 0.0)",3.802,8.459,2.88,"(0.0, 0.0, 0.0, 0.0, 0.0, 0.0, 0.0, 0.0, 0.0)",0,0,0,,-3.292e-05,-1.755e-05,-4.064e-05,"(0.0, 0.0, 0.0, 0.0, 0.0, 0.0, 0.0, 0.0, 0.0)","$VNYMR,+121.399,+018.169,-123.099,-00.3292,-00.1755,-00.4064,+03.802,+08.459,+02.880,-00.024602,+00.071938,+00.066981*69
"
1698874273.788282,0,1698874273,758189678,GPS1_Frame,0,0,0,,-0.4919020245588445,-0.7197575211614033,0.47750876010959215,0.10939329497323809,"(0.0, 0.0, 0.0, 0.0, 0.0, 0.0, 0.0, 0.0, 0.0)",-0.016648,0.120468,0.103247,"(0.0, 0.0, 0.0, 0.0, 0.0, 0.0, 0.0, 0.0, 0.0)",3.845,8.393,2.984,"(0.0, 0.0, 0.0, 0.0, 0.0, 0.0, 0.0, 0.0, 0.0)",0,0,0,,-3.249e-05,-1.722e-05,-4.076e-05,"(0.0, 0.0, 0.0, 0.0, 0.0, 0.0, 0.0, 0.0, 0.0)","$VNYMR,+121.201,+018.198,-123.190,-00.3249,-00.1722,-00.4076,+03.845,+08.393,+02.984,-00.016648,+00.120468,+00.103247*6C
"
1698874273.8309672,0,1698874273,786441802,GPS1_Frame,0,0,0,,-0.49359679665185596,-0.7190099172515382,0.47667385490039527,0.11031308754340724,"(0.0, 0.0, 0.0, 0.0, 0.0, 0.0, 0.0, 0.0, 0.0)",0.001775,0.155077,0.068029,"(0.0, 0.0, 0.0, 0.0, 0.0, 0.0, 0.0, 0.0, 0.0)",3.854,8.297,3.241,"(0.0, 0.0, 0.0, 0.0, 0.0, 0.0, 0.0, 0.0, 0.0)",0,0,0,,-3.26e-05,-1.7330000000000002e-05,-4.05e-05,"(0.0, 0.0, 0.0, 0.0, 0.0, 0.0, 0.0, 0.0, 0.0)","$VNYMR,+120.933,+018.176,-123.271,-00.3260,-00.1733,-00.4050,+03.854,+08.297,+03.241,+00.001775,+00.155077,+00.068029*63
"
1698874273.831001,0,1698874273,818246603,GPS1_Frame,0,0,0,,-0.4949585137862418,-0.7184691048238809,0.4759501664559067,0.11085871230841762,"(0.0, 0.0, 0.0, 0.0, 0.0, 0.0, 0.0, 0.0, 0.0)",-0.029831,0.081249,0.084507,"(0.0, 0.0, 0.0, 0.0, 0.0, 0.0, 0.0, 0.0, 0.0)",3.957,8.299,3.391,"(0.0, 0.0, 0.0, 0.0, 0.0, 0.0, 0.0, 0.0, 0.0)",0,0,0,,-3.26e-05,-1.756e-05,-4.139e-05,"(0.0, 0.0, 0.0, 0.0, 0.0, 0.0, 0.0, 0.0, 0.0)","$VNYMR,+120.726,+018.171,-123.352,-00.3260,-00.1756,-00.4139,+03.957,+08.299,+03.391,-00.029831,+00.081249,+00.084507*6C
"
1698874273.8835437,0,1698874273,833350658,GPS1_Frame,0,0,0,,-0.4958988400919041,-0.7182350125746718,0.4754383897590158,0.1103682230115148,"(0.0, 0.0, 0.0, 0.0, 0.0, 0.0, 0.0, 0.0, 0.0)",-0.073295,-0.010325,0.065807,"(0.0, 0.0, 0.0, 0.0, 0.0, 0.0, 0.0, 0.0, 0.0)",4.006,8.173,3.357,"(0.0, 0.0, 0.0, 0.0, 0.0, 0.0, 0.0, 0.0, 0.0)",0,0,0,,-3.2710000000000004e-05,-1.7780000000000003e-05,-4.063e-05,"(0.0, 0.0, 0.0, 0.0, 0.0, 0.0, 0.0, 0.0, 0.0)","$VNYMR,+120.624,+018.240,-123.453,-00.3271,-00.1778,-00.4063,+04.006,+08.173,+03.357,-00.073295,-00.010325,+00.065807*61
"
1698874273.8842883,0,1698874273,860545873,GPS1_Frame,0,0,0,,-0.4963256154969647,-0.718378915316327,0.4749391021037692,0.10966068905201194,"(0.0, 0.0, 0.0, 0.0, 0.0, 0.0, 0.0, 0.0, 0.0)",-0.058989,0.011991,0.022642,"(0.0, 0.0, 0.0, 0.0, 0.0, 0.0, 0.0, 0.0, 0.0)",3.885,8.306,3.237,"(0.0, 0.0, 0.0, 0.0, 0.0, 0.0, 0.0, 0.0, 0.0)",0,0,0,,-3.249e-05,-1.7440000000000002e-05,-4.075e-05,"(0.0, 0.0, 0.0, 0.0, 0.0, 0.0, 0.0, 0.0, 0.0)","$VNYMR,+120.597,+018.294,-123.556,-00.3249,-00.1744,-00.4075,+03.885,+08.306,+03.237,-00.058989,+00.011991,+00.022642*66
"
1698874273.9267166,0,1698874273,884871482,GPS1_Frame,0,0,0,,-0.49651971214214585,-0.71855855534532,0.4744957206954026,0.10952437644688068,"(0.0, 0.0, 0.0, 0.0, 0.0, 0.0, 0.0, 0.0, 0.0)",-0.040085,-0.000755,0.009514,"(0.0, 0.0, 0.0, 0.0, 0.0, 0.0, 0.0, 0.0, 0.0)",3.745,8.658,3.327,"(0.0, 0.0, 0.0, 0.0, 0.0, 0.0, 0.0, 0.0, 0.0)",0,0,0,,-3.208e-05,-1.7680000000000004e-05,-4.125e-05,"(0.0, 0.0, 0.0, 0.0, 0.0, 0.0, 0.0, 0.0, 0.0)","$VNYMR,+120.573,+018.288,-123.620,-00.3208,-00.1768,-00.4125,+03.745,+08.658,+03.327,-00.040085,-00.000755,+00.009514*64
"
1698874273.926738,0,1698874273,907233715,GPS1_Frame,0,0,0,,-0.49665261949715045,-0.7187270694922522,0.4744395487006738,0.10804947826990599,"(0.0, 0.0, 0.0, 0.0, 0.0, 0.0, 0.0, 0.0, 0.0)",-0.09034,-0.123627,0.084856,"(0.0, 0.0, 0.0, 0.0, 0.0, 0.0, 0.0, 0.0, 0.0)",3.718,8.606,3.27,"(0.0, 0.0, 0.0, 0.0, 0.0, 0.0, 0.0, 0.0, 0.0)",0,0,0,,-3.2590000000000005e-05,-1.698e-05,-4.089e-05,"(0.0, 0.0, 0.0, 0.0, 0.0, 0.0, 0.0, 0.0, 0.0)","$VNYMR,+120.625,+018.418,-123.703,-00.3259,-00.1698,-00.4089,+03.718,+08.606,+03.270,-00.090340,-00.123627,+00.084856*6B
"
1698874273.9790924,0,1698874273,934682130,GPS1_Frame,0,0,0,,-0.4967228468469786,-0.7188428166402153,0.47469661710619726,0.10580425366178443,"(0.0, 0.0, 0.0, 0.0, 0.0, 0.0, 0.0, 0.0, 0.0)",-0.070999,-0.130199,0.069945,"(0.0, 0.0, 0.0, 0.0, 0.0, 0.0, 0.0, 0.0, 0.0)",3.749,8.406,3.076,"(0.0, 0.0, 0.0, 0.0, 0.0, 0.0, 0.0, 0.0, 0.0)",0,0,0,,-3.27e-05,-1.732e-05,-4.025e-05,"(0.0, 0.0, 0.0, 0.0, 0.0, 0.0, 0.0, 0.0, 0.0)","$VNYMR,+120.725,+018.631,-123.785,-00.3270,-00.1732,-00.4025,+03.749,+08.406,+03.076,-00.070999,-00.130199,+00.069945*63
"
1698874273.982371,0,1698874273,958008527,GPS1_Frame,0,0,0,,-0.4966254086772082,-0.7189126420752616,0.4750910114494138,0.10400166998916788,"(0.0, 0.0, 0.0, 0.0, 0.0, 0.0, 0.0, 0.0, 0.0)",-0.044783,-0.124769,0.068968,"(0.0, 0.0, 0.0, 0.0, 0.0, 0.0, 0.0, 0.0, 0.0)",3.763,8.53,3.041,"(0.0, 0.0, 0.0, 0.0, 0.0, 0.0, 0.0, 0.0, 0.0)",0,0,0,,-3.26e-05,-1.7330000000000002e-05,-4.089e-05,"(0.0, 0.0, 0.0, 0.0, 0.0, 0.0, 0.0, 0.0, 0.0)","$VNYMR,+120.827,+018.805,-123.825,-00.3260,-00.1733,-00.4089,+03.763,+08.530,+03.041,-00.044783,-00.124769,+00.068968*6C
"
1698874274.0234828,0,1698874273,983021259,GPS1_Frame,0,0,0,,-0.49676035668451124,-0.71870923080617,0.47574113850856475,0.10176717894908643,"(0.0, 0.0, 0.0, 0.0, 0.0, 0.0, 0.0, 0.0, 0.0)",-0.060106,-0.165483,0.120137,"(0.0, 0.0, 0.0, 0.0, 0.0, 0.0, 0.0, 0.0, 0.0)",3.802,8.452,2.98,"(0.0, 0.0, 0.0, 0.0, 0.0, 0.0, 0.0, 0.0, 0.0)",0,0,0,,-3.2800000000000004e-05,-1.686e-05,-4.09e-05,"(0.0, 0.0, 0.0, 0.0, 0.0, 0.0, 0.0, 0.0, 0.0)","$VNYMR,+120.923,+019.049,-123.858,-00.3280,-00.1686,-00.4090,+03.802,+08.452,+02.980,-00.060106,-00.165483,+00.120137*63
"
1698874274.0235019,0,1698874274,14408111,GPS1_Frame,0,0,0,,-0.49716944596417845,-0.718122935198826,0.47669683014183706,0.09940887321471467,"(0.0, 0.0, 0.0, 0.0, 0.0, 0.0, 0.0, 0.0, 0.0)",0.011674,-0.138161,0.150265,"(0.0, 0.0, 0.0, 0.0, 0.0, 0.0, 0.0, 0.0, 0.0)",3.952,8.241,3.003,"(0.0, 0.0, 0.0, 0.0, 0.0, 0.0, 0.0, 0.0, 0.0)",0,0,0,,-3.26e-05,-1.7440000000000002e-05,-4.101e-05,"(0.0, 0.0, 0.0, 0.0, 0.0, 0.0, 0.0, 0.0, 0.0)","$VNYMR,+120.994,+019.343,-123.863,-00.3260,-00.1744,-00.4101,+03.952,+08.241,+03.003,+00.011674,-00.138161,+00.150265*65
"
1698874274.0667295,0,1698874274,36404132,GPS1_Frame,0,0,0,,-0.4977644365520927,-0.7173497967217715,0.47779065996664893,0.09672600527182526,"(0.0, 0.0, 0.0, 0.0, 0.0, 0.0, 0.0, 0.0, 0.0)",-0.083195,-0.214426,0.198934,"(0.0, 0.0, 0.0, 0.0, 0.0, 0.0, 0.0, 0.0, 0.0)",4.099,7.969,3.162,"(0.0, 0.0, 0.0, 0.0, 0.0, 0.0, 0.0, 0.0, 0.0)",0,0,0,,-3.312e-05,-1.697e-05,-4.078e-05,"(0.0, 0.0, 0.0, 0.0, 0.0, 0.0, 0.0, 0.0, 0.0)","$VNYMR,+121.058,+019.687,-123.869,-00.3312,-00.1697,-00.4078,+04.099,+07.969,+03.162,-00.083195,-00.214426,+00.198934*6A
"
1698874274.084207,0,1698874274,61138153,GPS1_Frame,0,0,0,,-0.4980272840192745,-0.7168259814800203,0.4790256696642853,0.09307923748223165,"(0.0, 0.0, 0.0, 0.0, 0.0, 0.0, 0.0, 0.0, 0.0)",-0.079795,-0.268125,0.148775,"(0.0, 0.0, 0.0, 0.0, 0.0, 0.0, 0.0, 0.0, 0.0)",4.141,7.582,3.037,"(0.0, 0.0, 0.0, 0.0, 0.0, 0.0, 0.0, 0.0, 0.0)",0,0,0,,-3.3010000000000004e-05,-1.686e-05,-4.078e-05,"(0.0, 0.0, 0.0, 0.0, 0.0, 0.0, 0.0, 0.0, 0.0)","$VNYMR,+121.210,+020.102,-123.898,-00.3301,-00.1686,-00.4078,+04.141,+07.582,+03.037,-00.079795,-00.268125,+00.148775*6C
"
1698874274.1307585,0,1698874274,86058139,GPS1_Frame,0,0,0,,-0.49759845177742157,-0.7166594677065199,0.4805135792558984,0.0888914410165915,"(0.0, 0.0, 0.0, 0.0, 0.0, 0.0, 0.0, 0.0, 0.0)",-0.079283,-0.346761,0.15131,"(0.0, 0.0, 0.0, 0.0, 0.0, 0.0, 0.0, 0.0, 0.0)",4.242,7.394,2.827,"(0.0, 0.0, 0.0, 0.0, 0.0, 0.0, 0.0, 0.0, 0.0)",0,0,0,,-3.3220000000000004e-05,-1.674e-05,-4.0400000000000006e-05,"(0.0, 0.0, 0.0, 0.0, 0.0, 0.0, 0.0, 0.0, 0.0)","$VNYMR,+121.478,+020.536,-123.908,-00.3322,-00.1674,-00.4040,+04.242,+07.394,+02.827,-00.079283,-00.346761,+00.151310*67
"
1698874274.1307797,0,1698874274,114104032,GPS1_Frame,0,0,0,,-0.49677538817304884,-0.7166831980092383,0.48212706010933915,0.08445652909688589,"(0.0, 0.0, 0.0, 0.0, 0.0, 0.0, 0.0, 0.0, 0.0)",-0.087391,-0.338735,0.128376,"(0.0, 0.0, 0.0, 0.0, 0.0, 0.0, 0.0, 0.0, 0.0)",4.327,7.118,2.479,"(0.0, 0.0, 0.0, 0.0, 0.0, 0.0, 0.0, 0.0, 0.0)",0,0,0,,-3.3220000000000004e-05,-1.674e-05,-4.015000000000001e-05,"(0.0, 0.0, 0.0, 0.0, 0.0, 0.0, 0.0, 0.0, 0.0)","$VNYMR,+121.809,+020.975,-123.904,-00.3322,-00.1674,-00.4015,+04.327,+07.118,+02.479,-00.087391,-00.338735,+00.128376*6C
"
1698874274.175316,0,1698874274,135459184,GPS1_Frame,0,0,0,,-0.49608075745657415,-0.7169061343776146,0.48321588520016684,0.08032362581007166,"(0.0, 0.0, 0.0, 0.0, 0.0, 0.0, 0.0, 0.0, 0.0)",-0.11576,-0.264541,0.087072,"(0.0, 0.0, 0.0, 0.0, 0.0, 0.0, 0.0, 0.0, 0.0)",4.503,6.702,2.117,"(0.0, 0.0, 0.0, 0.0, 0.0, 0.0, 0.0, 0.0, 0.0)",0,0,0,,-3.351e-05,-1.593e-05,-4.0680000000000004e-05,"(0.0, 0.0, 0.0, 0.0, 0.0, 0.0, 0.0, 0.0, 0.0)","$VNYMR,+122.101,+021.362,-123.950,-00.3351,-00.1593,-00.4068,+04.503,+06.702,+02.117,-00.115760,-00.264541,+00.087072*6D
"
1698874274.1753237,0,1698874274,158223628,GPS1_Frame,0,0,0,,-0.4956134742960451,-0.717404874477801,0.4832487618505641,0.07853766193101741,"(0.0, 0.0, 0.0, 0.0, 0.0, 0.0, 0.0, 0.0, 0.0)",-0.058332,-0.016837,-0.02811,"(0.0, 0.0, 0.0, 0.0, 0.0, 0.0, 0.0, 0.0, 0.0)",4.555,6.45,2.054,"(0.0, 0.0, 0.0, 0.0, 0.0, 0.0, 0.0, 0.0, 0.0)",0,0,0,,-3.353e-05,-1.65e-05,-4.042e-05,"(0.0, 0.0, 0.0, 0.0, 0.0, 0.0, 0.0, 0.0, 0.0)","$VNYMR,+122.241,+021.489,-124.021,-00.3353,-00.1650,-00.4042,+04.555,+06.450,+02.054,-00.058332,-00.016837,-00.028110*61
"
1698874274.2239945,0,1698874274,183565616,GPS1_Frame,0,0,0,,-0.49527703389574584,-0.7181521985939935,0.4821900335153562,0.08031718949580552,"(0.0, 0.0, 0.0, 0.0, 0.0, 0.0, 0.0, 0.0, 0.0)",0.023111,0.237224,-0.190364,"(0.0, 0.0, 0.0, 0.0, 0.0, 0.0, 0.0, 0.0, 0.0)",4.46,6.277,2.207,"(0.0, 0.0, 0.0, 0.0, 0.0, 0.0, 0.0, 0.0, 0.0)",0,0,0,,-3.3310000000000005e-05,-1.628e-05,-3.991e-05,"(0.0, 0.0, 0.0, 0.0, 0.0, 0.0, 0.0, 0.0, 0.0)","$VNYMR,+122.187,+021.240,-124.065,-00.3331,-00.1628,-00.3991,+04.460,+06.277,+02.207,+00.023111,+00.237224,-00.190364*65
"
1698874274.2353485,0,1698874274,209856986,GPS1_Frame,0,0,0,,-0.4950183795624643,-0.7188143923206284,0.4804776768920871,0.08604577442536401,"(0.0, 0.0, 0.0, 0.0, 0.0, 0.0, 0.0, 0.0, 0.0)",0.148878,0.446753,-0.317743,"(0.0, 0.0, 0.0, 0.0, 0.0, 0.0, 0.0, 0.0, 0.0)",4.262,6.202,2.699,"(0.0, 0.0, 0.0, 0.0, 0.0, 0.0, 0.0, 0.0, 0.0)",0,0,0,,-3.3100000000000005e-05,-1.6400000000000002e-05,-4.028e-05,"(0.0, 0.0, 0.0, 0.0, 0.0, 0.0, 0.0, 0.0, 0.0)","$VNYMR,+121.935,+020.609,-124.005,-00.3310,-00.1640,-00.4028,+04.262,+06.202,+02.699,+00.148878,+00.446753,-00.317743*6E
"
1698874274.2839663,0,1698874274,237045049,GPS1_Frame,0,0,0,,-0.4940260177083296,-0.7196020577512069,0.47908153208234316,0.09269335426616365,"(0.0, 0.0, 0.0, 0.0, 0.0, 0.0, 0.0, 0.0, 0.0)",0.140706,0.314685,-0.374695,"(0.0, 0.0, 0.0, 0.0, 0.0, 0.0, 0.0, 0.0, 0.0)",4.214,6.177,3.116,"(0.0, 0.0, 0.0, 0.0, 0.0, 0.0, 0.0, 0.0, 0.0)",0,0,0,,-3.279e-05,-1.664e-05,-3.989e-05,"(0.0, 0.0, 0.0, 0.0, 0.0, 0.0, 0.0, 0.0, 0.0)","$VNYMR,+121.737,+019.874,-123.845,-00.3279,-00.1664,-00.3989,+04.214,+06.177,+03.116,+00.140706,+00.314685,-00.374695*60
"
1698874274.283989,0,1698874274,257503986,GPS1_Frame,0,0,0,,-0.49117690792847546,-0.7213498312303444,0.4785205536341788,0.09704507123710468,"(0.0, 0.0, 0.0, 0.0, 0.0, 0.0, 0.0, 0.0, 0.0)",0.0704,0.067507,-0.443798,"(0.0, 0.0, 0.0, 0.0, 0.0, 0.0, 0.0, 0.0, 0.0)",4.019,5.935,2.705,"(0.0, 0.0, 0.0, 0.0, 0.0, 0.0, 0.0, 0.0, 0.0)",0,0,0,,-3.3e-05,-1.6630000000000002e-05,-4.015000000000001e-05,"(0.0, 0.0, 0.0, 0.0, 0.0, 0.0, 0.0, 0.0, 0.0)","$VNYMR,+121.888,+019.273,-123.660,-00.3300,-00.1663,-00.4015,+04.019,+05.935,+02.705,+00.070400,+00.067507,-00.443798*6D
"
1698874274.3358364,0,1698874274,285374879,GPS1_Frame,0,0,0,,-0.48655101872362877,-0.7241090546615621,0.47817996308505784,0.10138099447189634,"(0.0, 0.0, 0.0, 0.0, 0.0, 0.0, 0.0, 0.0, 0.0)",0.089961,0.09118,-0.603577,"(0.0, 0.0, 0.0, 0.0, 0.0, 0.0, 0.0, 0.0, 0.0)",3.945,6.181,2.272,"(0.0, 0.0, 0.0, 0.0, 0.0, 0.0, 0.0, 0.0, 0.0)",0,0,0,,-3.268e-05,-1.641e-05,-3.989e-05,"(0.0, 0.0, 0.0, 0.0, 0.0, 0.0, 0.0, 0.0, 0.0)","$VNYMR,+122.261,+018.572,-123.423,-00.3268,-00.1641,-00.3989,+03.945,+06.181,+02.272,+00.089961,+00.091180,-00.603577*68
"
1698874274.3358622,0,1698874274,307557106,GPS1_Frame,0,0,0,,-0.48136258632180556,-0.7270858325917564,0.4775232454272777,0.10773951276358473,"(0.0, 0.0, 0.0, 0.0, 0.0, 0.0, 0.0, 0.0, 0.0)",0.154396,0.215806,-0.707232,"(0.0, 0.0, 0.0, 0.0, 0.0, 0.0, 0.0, 0.0, 0.0)",3.511,6.408,2.12,"(0.0, 0.0, 0.0, 0.0, 0.0, 0.0, 0.0, 0.0, 0.0)",0,0,0,,-3.248e-05,-1.6760000000000002e-05,-3.911e-05,"(0.0, 0.0, 0.0, 0.0, 0.0, 0.0, 0.0, 0.0, 0.0)","$VNYMR,+122.595,+017.641,-123.122,-00.3248,-00.1676,-00.3911,+03.511,+06.408,+02.120,+00.154396,+00.215806,-00.707232*6F
"
1698874274.3785994,0,1698874274,337147712,GPS1_Frame,0,0,0,,-0.47543685149100096,-0.7307514347918702,0.47602034072589794,0.11561477418196509,"(0.0, 0.0, 0.0, 0.0, 0.0, 0.0, 0.0, 0.0, 0.0)",0.116819,0.295823,-0.853646,"(0.0, 0.0, 0.0, 0.0, 0.0, 0.0, 0.0, 0.0, 0.0)",3.102,6.948,1.98,"(0.0, 0.0, 0.0, 0.0, 0.0, 0.0, 0.0, 0.0, 0.0)",0,0,0,,-3.251e-05,-1.779e-05,-3.935e-05,"(0.0, 0.0, 0.0, 0.0, 0.0, 0.0, 0.0, 0.0, 0.0)","$VNYMR,+122.923,+016.479,-122.844,-00.3251,-00.1779,-00.3935,+03.102,+06.948,+01.980,+00.116819,+00.295823,-00.853646*6C
"
1698874274.378694,0,1698874274,364528894,GPS1_Frame,0,0,0,,-0.4692438900430499,-0.7349449554323707,0.4737457790160487,0.12341402272940409,"(0.0, 0.0, 0.0, 0.0, 0.0, 0.0, 0.0, 0.0, 0.0)",-0.006126,0.221526,-0.802487,"(0.0, 0.0, 0.0, 0.0, 0.0, 0.0, 0.0, 0.0, 0.0)",2.664,7.527,1.983,"(0.0, 0.0, 0.0, 0.0, 0.0, 0.0, 0.0, 0.0, 0.0)",0,0,0,,-3.187e-05,-1.757e-05,-3.909000000000001e-05,"(0.0, 0.0, 0.0, 0.0, 0.0, 0.0, 0.0, 0.0, 0.0)","$VNYMR,+123.264,+015.260,-122.663,-00.3187,-00.1757,-00.3909,+02.664,+07.527,+01.983,-00.006126,+00.221526,-00.802487*66
"
1698874274.4267328,0,1698874274,383507728,GPS1_Frame,0,0,0,,-0.46246197156531466,-0.7408578779551752,0.47029158428221474,0.1268241115916118,"(0.0, 0.0, 0.0, 0.0, 0.0, 0.0, 0.0, 0.0, 0.0)",-0.47174,-0.185637,-0.820797,"(0.0, 0.0, 0.0, 0.0, 0.0, 0.0, 0.0, 0.0, 0.0)",1.95,7.387,2.052,"(0.0, 0.0, 0.0, 0.0, 0.0, 0.0, 0.0, 0.0, 0.0)",0,0,0,,-3.189e-05,-1.8370000000000002e-05,-3.8690000000000004e-05,"(0.0, 0.0, 0.0, 0.0, 0.0, 0.0, 0.0, 0.0, 0.0)","$VNYMR,+123.874,+014.304,-122.840,-00.3189,-00.1837,-00.3869,+01.950,+07.387,+02.052,-00.471740,-00.185637,-00.820797*69
"
1698874274.4267628,0,1698874274,407294988,GPS1_Frame,0,0,0,,-0.4535946164101585,-0.7507959101244168,0.46362177427022855,0.12494909254050218,"(0.0, 0.0, 0.0, 0.0, 0.0, 0.0, 0.0, 0.0, 0.0)",-0.829532,-0.249382,-0.851552,"(0.0, 0.0, 0.0, 0.0, 0.0, 0.0, 0.0, 0.0, 0.0)",1.937,9.222,1.307,"(0.0, 0.0, 0.0, 0.0, 0.0, 0.0, 0.0, 0.0, 0.0)",0,0,0,,-3.156e-05,-1.804e-05,-3.8690000000000004e-05,"(0.0, 0.0, 0.0, 0.0, 0.0, 0.0, 0.0, 0.0, 0.0)","$VNYMR,+124.963,+013.472,-123.651,-00.3156,-00.1804,-00.3869,+01.937,+09.222,+01.307,-00.829532,-00.249382,-00.851552*67
"
1698874274.4723032,0,1698874274,434065103,GPS1_Frame,0,0,0,,-0.45022066582507647,-0.75675322957597,0.45667432389723983,0.12678510749832836,"(0.0, 0.0, 0.0, 0.0, 0.0, 0.0, 0.0, 0.0, 0.0)",-0.314083,0.498519,-0.36489,"(0.0, 0.0, 0.0, 0.0, 0.0, 0.0, 0.0, 0.0, 0.0)",2.933,9.06,1.712,"(0.0, 0.0, 0.0, 0.0, 0.0, 0.0, 0.0, 0.0, 0.0)",0,0,0,,-3.157e-05,-1.815e-05,-3.8560000000000004e-05,"(0.0, 0.0, 0.0, 0.0, 0.0, 0.0, 0.0, 0.0, 0.0)","$VNYMR,+125.204,+012.669,-124.367,-00.3157,-00.1815,-00.3856,+02.933,+09.060,+01.712,-00.314083,+00.498519,-00.364890*60
"
1698874274.4725447,0,1698874274,461513996,GPS1_Frame,0,0,0,,-0.4510000908411386,-0.757453262714191,0.4513128349553146,0.13849259138852316,"(0.0, 0.0, 0.0, 0.0, 0.0, 0.0, 0.0, 0.0, 0.0)",0.255848,1.115495,-0.690876,"(0.0, 0.0, 0.0, 0.0, 0.0, 0.0, 0.0, 0.0, 0.0)",3.058,6.773,3.143,"(0.0, 0.0, 0.0, 0.0, 0.0, 0.0, 0.0, 0.0, 0.0)",0,0,0,,-3.115e-05,-1.8160000000000002e-05,-3.83e-05,"(0.0, 0.0, 0.0, 0.0, 0.0, 0.0, 0.0, 0.0, 0.0)","$VNYMR,+124.469,+011.378,-124.429,-00.3115,-00.1816,-00.3830,+03.058,+06.773,+03.143,+00.255848,+01.115495,-00.690876*62
"
1698874274.5148237,0,1698874274,487049818,GPS1_Frame,0,0,0,,-0.4450839211168277,-0.7611880303220426,0.445051895613265,0.15627506476964897,"(0.0, 0.0, 0.0, 0.0, 0.0, 0.0, 0.0, 0.0, 0.0)",0.191654,1.002848,-1.470972,"(0.0, 0.0, 0.0, 0.0, 0.0, 0.0, 0.0, 0.0, 0.0)",1.768,8.405,3.901,"(0.0, 0.0, 0.0, 0.0, 0.0, 0.0, 0.0, 0.0, 0.0)",0,0,0,,-3.072e-05,-1.8060000000000003e-05,-3.867e-05,"(0.0, 0.0, 0.0, 0.0, 0.0, 0.0, 0.0, 0.0, 0.0)","$VNYMR,+124.197,+009.106,-124.201,-00.3072,-00.1806,-00.3867,+01.768,+08.405,+03.901,+00.191654,+01.002848,-01.470972*64
"
1698874274.5588923,0,1698874274,507608413,GPS1_Frame,0,0,0,,-0.43485811004075475,-0.7671113077763616,0.4380881067212458,0.17469251948156622,"(0.0, 0.0, 0.0, 0.0, 0.0, 0.0, 0.0, 0.0, 0.0)",0.111231,0.909977,-1.53256,"(0.0, 0.0, 0.0, 0.0, 0.0, 0.0, 0.0, 0.0, 0.0)",0.66,11.375,4.107,"(0.0, 0.0, 0.0, 0.0, 0.0, 0.0, 0.0, 0.0, 0.0)",0,0,0,,-3e-05,-1.876e-05,-3.775e-05,"(0.0, 0.0, 0.0, 0.0, 0.0, 0.0, 0.0, 0.0, 0.0)","$VNYMR,+124.359,+006.488,-123.966,-00.3000,-00.1876,-00.3775,+00.660,+11.375,+04.107,+00.111231,+00.909977,-01.532560*6B
"
1698874274.5589042,0,1698874274,532619953,GPS1_Frame,0,0,0,,-0.42836171830743885,-0.7709279096352891,0.4313471602495555,0.19004216316045863,"(0.0, 0.0, 0.0, 0.0, 0.0, 0.0, 0.0, 0.0, 0.0)",-0.013453,0.839538,-0.904252,"(0.0, 0.0, 0.0, 0.0, 0.0, 0.0, 0.0, 0.0, 0.0)",0.255,12.302,4.716,"(0.0, 0.0, 0.0, 0.0, 0.0, 0.0, 0.0, 0.0, 0.0)",0,0,0,,-2.9370000000000002e-05,-1.9120000000000003e-05,-3.811e-05,"(0.0, 0.0, 0.0, 0.0, 0.0, 0.0, 0.0, 0.0, 0.0)","$VNYMR,+124.224,+004.389,-123.868,-00.2937,-00.1912,-00.3811,+00.255,+12.302,+04.716,-00.013453,+00.839538,-00.904252*62
"
1698874274.6023858,0,1698874274,560325622,GPS1_Frame,0,0,0,,-0.42683773373408945,-0.7714852785284494,0.4266849140356895,0.20139512955626254,"(0.0, 0.0, 0.0, 0.0, 0.0, 0.0, 0.0, 0.0, 0.0)",0.148725,0.753583,-0.433637,"(0.0, 0.0, 0.0, 0.0, 0.0, 0.0, 0.0, 0.0, 0.0)",0.427,10.975,5.198,"(0.0, 0.0, 0.0, 0.0, 0.0, 0.0, 0.0, 0.0, 0.0)",0,0,0,,-2.9170000000000004e-05,-1.924e-05,-3.8100000000000005e-05,"(0.0, 0.0, 0.0, 0.0, 0.0, 0.0, 0.0, 0.0, 0.0)","$VNYMR,+123.731,+003.067,-123.749,-00.2917,-00.1924,-00.3810,+00.427,+10.975,+05.198,+00.148725,+00.753583,-00.433637*66
"
1698874274.6024077,0,1698874274,585792303,GPS1_Frame,0,0,0,,-0.42522752860959745,-0.7711195129140098,0.42417305735198596,0.21126633222665409,"(0.0, 0.0, 0.0, 0.0, 0.0, 0.0, 0.0, 0.0, 0.0)",0.226331,0.510162,-0.535413,"(0.0, 0.0, 0.0, 0.0, 0.0, 0.0, 0.0, 0.0, 0.0)",0.69,9.814,5.604,"(0.0, 0.0, 0.0, 0.0, 0.0, 0.0, 0.0, 0.0, 0.0)",0,0,0,,-2.8960000000000004e-05,-1.959e-05,-3.771e-05,"(0.0, 0.0, 0.0, 0.0, 0.0, 0.0, 0.0, 0.0, 0.0)","$VNYMR,+123.328,+002.001,-123.451,-00.2896,-00.1959,-00.3771,+00.690,+09.814,+05.604,+00.226331,+00.510162,-00.535413*6E
"
1698874274.6469092,0,1698874274,617878437,GPS1_Frame,0,0,0,,-0.42001439542393976,-0.7734979247547655,0.42277690713588667,0.2157511409688192,"(0.0, 0.0, 0.0, 0.0, 0.0, 0.0, 0.0, 0.0, 0.0)",-0.037788,-0.160595,-0.549009,"(0.0, 0.0, 0.0, 0.0, 0.0, 0.0, 0.0, 0.0, 0.0)",0.459,10.284,5.009,"(0.0, 0.0, 0.0, 0.0, 0.0, 0.0, 0.0, 0.0, 0.0)",0,0,0,,-2.8770000000000004e-05,-2.017e-05,-3.693e-05,"(0.0, 0.0, 0.0, 0.0, 0.0, 0.0, 0.0, 0.0, 0.0)","$VNYMR,+123.656,+001.225,-123.336,-00.2877,-00.2017,-00.3693,+00.459,+10.284,+05.009,-00.037788,-00.160595,-00.549009*69
"
1698874274.6469514,0,1698874274,633120775,GPS1_Frame,0,0,0,,-0.41449422516190426,-0.7775268515568227,0.42235837559946093,0.21274382476714124,"(0.0, 0.0, 0.0, 0.0, 0.0, 0.0, 0.0, 0.0, 0.0)",-0.207309,-0.515204,-0.265241,"(0.0, 0.0, 0.0, 0.0, 0.0, 0.0, 0.0, 0.0, 0.0)",0.673,9.976,3.751,"(0.0, 0.0, 0.0, 0.0, 0.0, 0.0, 0.0, 0.0, 0.0)",0,0,0,,-2.919e-05,-2.016e-05,-3.682e-05,"(0.0, 0.0, 0.0, 0.0, 0.0, 0.0, 0.0, 0.0, 0.0)","$VNYMR,+124.470,+001.106,-123.560,-00.2919,-00.2016,-00.3682,+00.673,+09.976,+03.751,-00.207309,-00.515204,-00.265241*6D
"
1698874274.6906722,0,1698874274,658131122,GPS1_Frame,0,0,0,,-0.4108790090183903,-0.7811808413360439,0.42197003932792837,0.20706573590809937,"(0.0, 0.0, 0.0, 0.0, 0.0, 0.0, 0.0, 0.0, 0.0)",-0.317437,-0.483342,-0.13305,"(0.0, 0.0, 0.0, 0.0, 0.0, 0.0, 0.0, 0.0, 0.0)",1.367,8.755,2.869,"(0.0, 0.0, 0.0, 0.0, 0.0, 0.0, 0.0, 0.0, 0.0)",0,0,0,,-2.907e-05,-1.947e-05,-3.6570000000000004e-05,"(0.0, 0.0, 0.0, 0.0, 0.0, 0.0, 0.0, 0.0, 0.0)","$VNYMR,+125.223,+001.332,-123.937,-00.2907,-00.1947,-00.3657,+01.367,+08.755,+02.869,-00.317437,-00.483342,-00.133050*61
"
